PaperID,Author,Year,Study,Subgroup,Gesture,Comparison,Baseline,Age (days),N,d,var(d),Presentation time (seconds),Response time (seconds),Modelling while responding,Setting of Data Collection,Who Delivers the Modelling,Exposure Quantity,Exposure Duration Per Slice,Response Quantity,Response Duration Per Slice,Total Exposure Duration,Total Response Duration,Trials-to-criterion,Infant Alertness Measured,How was Infant Alertness Measured,AlertM,Measure of Alertness or Attention by Infants,Reports How Sample Size Was Determined,Reports Statistical Power,Analysis Method,Analysis Method category,Analysis Method Appropriate for Correlated Data,Analysis Method Appropriate for Counts,Initial Sample Size,Number of Dropouts,Reported Participant Flow,Reason for Dropouts,Final Sample Size,Proportion of Sample Dropped
Anisfeld2001,Anisfeld,2001,Anisfeld2001_1,First position,Tongue protrusion,Mouth opening,0,1.683333333,28,0.847197607,0.08096599,24,24,1,Hospital,Experimenter,4,20,4,20,80,80,0,Yes,Eye opening in 4-sec intervals on a 4-point scale. ,Behaviour,Not reported,No,No,Wilcoxon matched-pairs signed-rank test,Signed rank,Yes,Yes,186,103,1,"72 inconsolable crying, bowel movements, hiccups, or sleeping; 2 procedural problems; 29 below minimum attentional criteria",83,1.240963855
Anisfeld2001,Anisfeld,2001,Anisfeld2001_1,First position,Tongue protrusion,Mouth opening,0,1.683333333,28,-0.043806854,0.074092501,24,24,0,Hospital,Experimenter,4,20,4,20,80,80,0,Yes,Eye opening in 4-sec intervals on a 4-point scale. ,Behaviour,Not reported,No,No,Wilcoxon matched-pairs signed-rank test,Signed rank,Yes,Yes,186,103,1,"72 inconsolable crying, bowel movements, hiccups, or sleeping; 2 procedural problems; 29 below minimum attentional criteria",83,1.240963855
Anisfeld2001,Anisfeld,2001,Anisfeld2001_1,Second position,Tongue protrusion,Mouth opening,0,1.683333333,26,0.783574672,0.086385488,24,24,1,Hospital,Experimenter,4,20,4,20,80,80,0,Yes,Eye opening in 4-sec intervals on a 4-point scale. ,Behaviour,Not reported,No,No,Wilcoxon matched-pairs signed-rank test,Signed rank,Yes,Yes,186,103,1,"72 inconsolable crying, bowel movements, hiccups, or sleeping; 2 procedural problems; 29 below minimum attentional criteria",83,1.240963855
Anisfeld2001,Anisfeld,2001,Anisfeld2001_1,Second position,Tongue protrusion,Mouth opening,0,1.683333333,26,0.609584855,0.083864574,24,24,0,Hospital,Experimenter,4,20,4,20,80,80,0,Yes,Eye opening in 4-sec intervals on a 4-point scale. ,Behaviour,Not reported,No,No,Wilcoxon matched-pairs signed-rank test,Signed rank,Yes,Yes,186,103,1,"72 inconsolable crying, bowel movements, hiccups, or sleeping; 2 procedural problems; 29 below minimum attentional criteria",83,1.240963855
Anisfeld2001,Anisfeld,2001,Anisfeld2001_1,Third position,Tongue protrusion,Mouth opening,0,1.683333333,15,-0.277379368,0.144329196,24,24,1,Hospital,Experimenter,4,20,4,20,80,80,0,Yes,Eye opening in 4-sec intervals on a 4-point scale. ,Behaviour,Not reported,No,No,Wilcoxon matched-pairs signed-rank test,Signed rank,Yes,Yes,186,103,1,"72 inconsolable crying, bowel movements, hiccups, or sleeping; 2 procedural problems; 29 below minimum attentional criteria",83,1.240963855
Anisfeld2001,Anisfeld,2001,Anisfeld2001_1,Third position,Tongue protrusion,Mouth opening,0,1.683333333,15,0.105662467,0.14307075,24,24,0,Hospital,Experimenter,4,20,4,20,80,80,0,Yes,Eye opening in 4-sec intervals on a 4-point scale. ,Behaviour,Not reported,No,No,Wilcoxon matched-pairs signed-rank test,Signed rank,Yes,Yes,186,103,1,"72 inconsolable crying, bowel movements, hiccups, or sleeping; 2 procedural problems; 29 below minimum attentional criteria",83,1.240963855
Anisfeld2001,Anisfeld,2001,Anisfeld2001_1,First position,Mouth opening,Tongue protrusion,0,1.683333333,27,-0.215665546,0.077387505,24,24,1,Hospital,Experimenter,4,20,4,20,80,80,0,Yes,Eye opening in 4-sec intervals on a 4-point scale. ,Behaviour,Not reported,No,No,Wilcoxon matched-pairs signed-rank test,Signed rank,Yes,Yes,186,103,1,"72 inconsolable crying, bowel movements, hiccups, or sleeping; 2 procedural problems; 29 below minimum attentional criteria",83,1.240963855
Anisfeld2001,Anisfeld,2001,Anisfeld2001_1,First position,Mouth opening,Tongue protrusion,0,1.683333333,27,-0.308722008,0.07787476,24,24,0,Hospital,Experimenter,4,20,4,20,80,80,0,Yes,Eye opening in 4-sec intervals on a 4-point scale. ,Behaviour,Not reported,No,No,Wilcoxon matched-pairs signed-rank test,Signed rank,Yes,Yes,186,103,1,"72 inconsolable crying, bowel movements, hiccups, or sleeping; 2 procedural problems; 29 below minimum attentional criteria",83,1.240963855
Anisfeld2001,Anisfeld,2001,Anisfeld2001_1,Second position,Mouth opening,Tongue protrusion,0,1.683333333,28,0.058470535,0.074106902,24,24,1,Hospital,Experimenter,4,20,4,20,80,80,0,Yes,Eye opening in 4-sec intervals on a 4-point scale. ,Behaviour,Not reported,No,No,Wilcoxon matched-pairs signed-rank test,Signed rank,Yes,Yes,186,103,1,"72 inconsolable crying, bowel movements, hiccups, or sleeping; 2 procedural problems; 29 below minimum attentional criteria",83,1.240963855
Anisfeld2001,Anisfeld,2001,Anisfeld2001_1,Second position,Mouth opening,Tongue protrusion,0,1.683333333,28,0.081537425,0.074137913,24,24,0,Hospital,Experimenter,4,20,4,20,80,80,0,Yes,Eye opening in 4-sec intervals on a 4-point scale. ,Behaviour,Not reported,No,No,Wilcoxon matched-pairs signed-rank test,Signed rank,Yes,Yes,186,103,1,"72 inconsolable crying, bowel movements, hiccups, or sleeping; 2 procedural problems; 29 below minimum attentional criteria",83,1.240963855
Anisfeld2001,Anisfeld,2001,Anisfeld2001_1,Third position,Mouth opening,Tongue protrusion,0,1.683333333,14,1.16834004,0.182115767,24,24,1,Hospital,Experimenter,4,20,4,20,80,80,0,Yes,Eye opening in 4-sec intervals on a 4-point scale. ,Behaviour,Not reported,No,No,Wilcoxon matched-pairs signed-rank test,Signed rank,Yes,Yes,186,103,1,"72 inconsolable crying, bowel movements, hiccups, or sleeping; 2 procedural problems; 29 below minimum attentional criteria",83,1.240963855
Anisfeld2001,Anisfeld,2001,Anisfeld2001_1,Third position,Mouth opening,Tongue protrusion,0,1.683333333,14,0.553846154,0.160198873,24,24,0,Hospital,Experimenter,4,20,4,20,80,80,0,Yes,Eye opening in 4-sec intervals on a 4-point scale. ,Behaviour,Not reported,No,No,Wilcoxon matched-pairs signed-rank test,Signed rank,Yes,Yes,186,103,1,"72 inconsolable crying, bowel movements, hiccups, or sleeping; 2 procedural problems; 29 below minimum attentional criteria",83,1.240963855
Coulon2013,Coulon,2013,Coulon2013_1,Visual-only condition,Mouth opening,Baseline,1,1.791666667,12,1.454922678,0.234300826,24,24,0,Hospital,Experimenter,4,24,4,24,96,96,0,Yes,Looking time,Looking,Looked at video for 84.25% of the time (SE = 1.76),No,No,Wilcoxon matched-pairs signed-rank test,Signed rank,Yes,Yes,48,12,1,"7 fussiness, 4 sleepiness, 1 experimental error",36,0.333333333
Coulon2013,Coulon,2013,Coulon2013_1,Visual-only condition,Mouth opening,Lip spreading,0,1.791666667,12,1.454922678,0.234300826,24,24,0,Hospital,Experimenter,4,24,4,24,96,96,0,Yes,Looking time,Looking,Looked at video for 84.25% of the time (SE = 1.76),No,No,Wilcoxon matched-pairs signed-rank test,Signed rank,Yes,Yes,48,12,1,"7 fussiness, 4 sleepiness, 1 experimental error",36,0.333333333
Coulon2013,Coulon,2013,Coulon2013_1,Visual-only condition,Lip spreading,Baseline,1,1.791666667,12,1.454922678,0.234300826,24,24,0,Hospital,Experimenter,4,24,4,24,96,96,0,Yes,Looking time,Looking,Looked at video for 84.25% of the time (SE = 1.76),No,No,Wilcoxon matched-pairs signed-rank test,Signed rank,Yes,Yes,48,12,1,"7 fussiness, 4 sleepiness, 1 experimental error",36,0.333333333
Coulon2013,Coulon,2013,Coulon2013_1,Visual-only condition,Lip spreading,Mouth opening,0,1.791666667,12,1.454922678,0.234300826,24,24,0,Hospital,Experimenter,4,24,4,24,96,96,0,Yes,Looking time,Looking,Looked at video for 84.25% of the time (SE = 1.76),No,No,Wilcoxon matched-pairs signed-rank test,Signed rank,Yes,Yes,48,12,1,"7 fussiness, 4 sleepiness, 1 experimental error",36,0.333333333
Coulon2013,Coulon,2013,Coulon2013_2,Audiovisual congruent condition,Mouth opening,Baseline,1,1.791666667,12,1.558845727,0.242066116,24,24,0,Hospital,Experimenter,4,24,4,24,96,96,0,Yes,Looking time,Looking,Looked at video for 84.25% of the time (SE = 1.76),No,No,Wilcoxon matched-pairs signed-rank test,Signed rank,Yes,Yes,48,12,1,"7 fussiness, 4 sleepiness, 1 experimental error",36,0.333333333
Coulon2013,Coulon,2013,Coulon2013_2,Audiovisual congruent condition,Mouth opening,Lip spreading,0,1.791666667,12,1.616580754,0.24661157,24,24,0,Hospital,Experimenter,4,24,4,24,96,96,0,Yes,Looking time,Looking,Looked at video for 84.25% of the time (SE = 1.76),No,No,Wilcoxon matched-pairs signed-rank test,Signed rank,Yes,Yes,48,12,1,"7 fussiness, 4 sleepiness, 1 experimental error",36,0.333333333
Coulon2013,Coulon,2013,Coulon2013_2,Audiovisual congruent condition,Lip spreading,Baseline,1,1.791666667,12,1.616580754,0.24661157,24,24,0,Hospital,Experimenter,4,24,4,24,96,96,0,Yes,Looking time,Looking,Looked at video for 84.25% of the time (SE = 1.76),No,No,Wilcoxon matched-pairs signed-rank test,Signed rank,Yes,Yes,48,12,1,"7 fussiness, 4 sleepiness, 1 experimental error",36,0.333333333
Coulon2013,Coulon,2013,Coulon2013_2,Audiovisual congruent condition,Lip spreading,Mouth opening,0,1.791666667,12,1.616580754,0.24661157,24,24,0,Hospital,Experimenter,4,24,4,24,96,96,0,Yes,Looking time,Looking,Looked at video for 84.25% of the time (SE = 1.76),No,No,Wilcoxon matched-pairs signed-rank test,Signed rank,Yes,Yes,48,12,1,"7 fussiness, 4 sleepiness, 1 experimental error",36,0.333333333
Field1983,Field,1983,Field1983_1,,Happy expression (wide lips),Baseline,1,1.458333333,96,0.594905911,0.044475761,,,1,Not reported,Experimenter,Trials-to-criterion,Trials-to-criterion,Trials-to-criterion,Trials-to-criterion,,,1,Yes,Fixations,Looking,Not reported,No,No,Repeated measures analysis of variance,ANOVA,Yes,No,,,0,Not reported,96,
Field1983,Field,1983,Field1983_1,,Sad expression (pouting lips),Baseline,1,1.458333333,96,0.640651842,0.044782806,,,1,Not reported,Experimenter,Trials-to-criterion,Trials-to-criterion,Trials-to-criterion,Trials-to-criterion,,,1,Yes,Fixations,Looking,Not reported,No,No,Repeated measures analysis of variance,ANOVA,Yes,No,,,0,Not reported,96,
Field1983,Field,1983,Field1983_1,,Surprised expression (wide open mouth),Baseline,1,1.458333333,96,0.769528371,0.045770071,,,1,Not reported,Experimenter,Trials-to-criterion,Trials-to-criterion,Trials-to-criterion,Trials-to-criterion,,,1,Yes,Fixations,Looking,Not reported,No,No,Repeated measures analysis of variance,ANOVA,Yes,No,,,0,Not reported,96,
Fontaine1984,Fontaine,1984,Fontaine1984_1,,Tongue protrusion,Average of other gestures,0,30,83,0.181107703,0.024491463,20,30,0,Hospital,Experimenter,4,20,4,30,80,120,0,No,Not reported,Not reported,Not reported,No,No,T tests for normal distribution of a simple difference score,Difference score,Yes,No,169,86,1,"66 for crying, 20 for falling asleep",83,1.036144578
Fontaine1984,Fontaine,1984,Fontaine1984_1,,Mouth opening,Average of other gestures,0,30,83,-0.08392796,0.024411981,20,30,0,Hospital,Experimenter,4,20,4,30,80,120,0,No,Not reported,Not reported,Not reported,No,No,T tests for normal distribution of a simple difference score,Difference score,Yes,No,169,86,1,"66 for crying, 20 for falling asleep",83,1.036144578
Fontaine1984,Fontaine,1984,Fontaine1984_1,,Cheek swelling,Average of other gestures,0,30,83,0.022086305,0.024391749,20,30,0,Hospital,Experimenter,4,20,4,30,80,120,0,No,Not reported,Not reported,Not reported,No,No,T tests for normal distribution of a simple difference score,Difference score,Yes,No,169,86,1,"66 for crying, 20 for falling asleep",83,1.036144578
Fontaine1984,Fontaine,1984,Fontaine1984_1,,Eye closing,Average of other gestures,0,30,83,0.039755349,0.024395121,20,30,0,Hospital,Experimenter,4,20,4,30,80,120,0,No,Not reported,Not reported,Not reported,No,No,T tests for normal distribution of a simple difference score,Difference score,Yes,No,169,86,1,"66 for crying, 20 for falling asleep",83,1.036144578
Fontaine1984,Fontaine,1984,Fontaine1984_1,,Hand opening,Index finger point,0,30,83,0.112640157,0.024429398,20,30,0,Hospital,Experimenter,4,20,4,30,80,120,0,No,Not reported,Not reported,Not reported,No,No,T tests for normal distribution of a simple difference score,Difference score,Yes,No,169,86,1,"66 for crying, 20 for falling asleep",83,1.036144578
Fontaine1984,Fontaine,1984,Fontaine1984_1,,Index finger point,Hand opening,0,30,83,-0.176690442,0.024486586,20,30,0,Hospital,Experimenter,4,20,4,30,80,120,0,No,Not reported,Not reported,Not reported,No,No,T tests for normal distribution of a simple difference score,Difference score,Yes,No,169,86,1,"66 for crying, 20 for falling asleep",83,1.036144578
Heimann1985,Heimann,1985,Heimann1985_1,,Mouth opening,Baseline,1,17.9,11,-0.587135108,0.20948001,,60,0,Home,Mother,1,Not reported,1,60,,60,0,Yes,Mother judged infant to be in an alert state,Experimenter judge,Not reported,No,No,Wilcoxon matched-pairs signed-rank test,Signed rank,Yes,Yes,30,17,1,"2 for sibling disturbance, 15 for sleepiness",13,1.307692308
Heimann1985,Heimann,1985,Heimann1985_1,,Mouth opening,Tongue protrusion,0,17.9,11,0.769580054,0.21628697,,60,0,Home,Mother,1,Not reported,1,60,,60,0,Yes,Mother judged infant to be in an alert state,Experimenter judge,Not reported,No,No,Wilcoxon matched-pairs signed-rank test,Signed rank,Yes,Yes,30,17,1,"2 for sibling disturbance, 15 for sleepiness",13,1.307692308
Heimann1985,Heimann,1985,Heimann1985_1,,Tongue protrusion,Baseline,1,17.9,11,0.813737023,0.218209618,,60,0,Home,Mother,1,Not reported,1,60,,60,0,Yes,Mother judged infant to be in an alert state,Experimenter judge,Not reported,No,No,Wilcoxon matched-pairs signed-rank test,Signed rank,Yes,Yes,30,17,1,"2 for sibling disturbance, 15 for sleepiness",13,1.307692308
Heimann1985,Heimann,1985,Heimann1985_1,,Tongue protrusion,Mouth opening,0,17.9,11,0.226601915,0.201412082,,60,0,Home,Mother,1,Not reported,1,60,,60,0,Yes,Mother judged infant to be in an alert state,Experimenter judge,Not reported,No,No,Wilcoxon matched-pairs signed-rank test,Signed rank,Yes,Yes,30,17,1,"2 for sibling disturbance, 15 for sleepiness",13,1.307692308
Heimann1989,Heimann,1989,Heimann1989_1,Time 1,Tongue protrusion,Baseline,1,2.5,23,0.25373783,0.09167397,37,,1,Hospital,Experimenter,Trials-to-criterion,Trials-to-criterion,Trials-to-criterion,Trials-to-criterion,37,60,0,Yes,"Just says ""when the infant was judged by experimenter A to be awake and alert""",Experimenter judge,Not reported,No,No,Wilcoxon matched-pairs signed-rank test,Signed rank,Yes,Yes,32,9,1,fussy or not enough time in alert state,23,0.391304348
Heimann1989,Heimann,1989,Heimann1989_1,Time 1,Tongue protrusion,Mouth opening,0,2.5,23,0.181491035,0.091300412,37,,1,Hospital,Experimenter,Trials-to-criterion,Trials-to-criterion,Trials-to-criterion,Trials-to-criterion,37,60,0,Yes,"Just says ""when the infant was judged by experimenter A to be awake and alert""",Experimenter judge,Not reported,No,No,Wilcoxon matched-pairs signed-rank test,Signed rank,Yes,Yes,32,9,1,fussy or not enough time in alert state,23,0.391304348
Heimann1989,Heimann,1989,Heimann1989_1,Time 1,Mouth opening,Baseline,1,2.5,23,-0.072246795,0.090971101,37,,1,Hospital,Experimenter,Trials-to-criterion,Trials-to-criterion,Trials-to-criterion,Trials-to-criterion,37,60,0,Yes,"Just says ""when the infant was judged by experimenter A to be awake and alert""",Experimenter judge,Not reported,No,No,Wilcoxon matched-pairs signed-rank test,Signed rank,Yes,Yes,32,9,1,fussy or not enough time in alert state,23,0.391304348
Heimann1989,Heimann,1989,Heimann1989_1,Time 1,Mouth opening,Tongue protrusion,0,2.5,23,0.181491035,0.091300412,37,,1,Hospital,Experimenter,Trials-to-criterion,Trials-to-criterion,Trials-to-criterion,Trials-to-criterion,37,60,0,Yes,"Just says ""when the infant was judged by experimenter A to be awake and alert""",Experimenter judge,Not reported,No,No,Wilcoxon matched-pairs signed-rank test,Signed rank,Yes,Yes,32,9,1,fussy or not enough time in alert state,23,0.391304348
Heimann1989,Heimann,1989,Heimann1989_2,Time 2,Tongue protrusion,Baseline,1,21,24,0.258694336,0.08771557,37,,1,Hospital,Experimenter,Trials-to-criterion,Trials-to-criterion,Trials-to-criterion,Trials-to-criterion,37,60,0,Yes,"Just says ""when the infant was judged by experimenter A to be awake and alert""",Experimenter judge,Not reported,No,No,Wilcoxon matched-pairs signed-rank test,Signed rank,Yes,Yes,32,9,1,fussy or not enough time in alert state,23,0.391304348
Heimann1989,Heimann,1989,Heimann1989_2,Time 2,Tongue protrusion,Mouth opening,0,21,24,0.068096678,0.087009117,37,,1,Hospital,Experimenter,Trials-to-criterion,Trials-to-criterion,Trials-to-criterion,Trials-to-criterion,37,60,0,Yes,"Just says ""when the infant was judged by experimenter A to be awake and alert""",Experimenter judge,Not reported,No,No,Wilcoxon matched-pairs signed-rank test,Signed rank,Yes,Yes,32,9,1,fussy or not enough time in alert state,23,0.391304348
Heimann1989,Heimann,1989,Heimann1989_2,Time 2,Mouth opening,Baseline,1,21,24,-0.190597659,0.087368554,37,,1,Hospital,Experimenter,Trials-to-criterion,Trials-to-criterion,Trials-to-criterion,Trials-to-criterion,37,60,0,Yes,"Just says ""when the infant was judged by experimenter A to be awake and alert""",Experimenter judge,Not reported,No,No,Wilcoxon matched-pairs signed-rank test,Signed rank,Yes,Yes,32,9,1,fussy or not enough time in alert state,23,0.391304348
Heimann1989,Heimann,1989,Heimann1989_2,Time 2,Mouth opening,Tongue protrusion,0,21,24,0.068096678,0.087009117,37,,1,Hospital,Experimenter,Trials-to-criterion,Trials-to-criterion,Trials-to-criterion,Trials-to-criterion,37,60,0,Yes,"Just says ""when the infant was judged by experimenter A to be awake and alert""",Experimenter judge,Not reported,No,No,Wilcoxon matched-pairs signed-rank test,Signed rank,Yes,Yes,32,9,1,fussy or not enough time in alert state,23,0.391304348
Kennedy2017,Kennedy,2017,Kennedy2017_1,,Tongue protrusion,Mouth opening,0,8.35,48,0.208302258,0.042788899,30,30,0,Home,Experimenter,2,30,4,30,120,120,0,Yes,"Just says ""in a quiet, alert state""",Experimenter judge,Not reported,No,No,Repeated measures t tests,t-test,Yes,No,,,0,Not reported,13,
Kennedy2017,Kennedy,2017,Kennedy2017_1,,Mouth opening,Tongue protrusion,0,8.35,48,-0.152127766,0.042678911,30,30,0,Home,Experimenter,2,30,4,30,120,120,0,Yes,"Just says ""in a quiet, alert state""",Experimenter judge,Not reported,No,No,Repeated measures t tests,t-test,Yes,No,,,0,Not reported,13,
Kennedy2017,Kennedy,2017,Kennedy2017_1,,Tongue protrusion,Tube protrusion,0,8.35,48,0.177087549,0.042723549,30,30,0,Home,Experimenter,2,30,4,30,120,120,0,Yes,"Just says ""in a quiet, alert state""",Experimenter judge,Not reported,No,No,Repeated measures t tests,t-test,Yes,No,,,0,Not reported,13,
Kennedy2017,Kennedy,2017,Kennedy2017_1,,Mouth opening,Box opening,0,8.35,48,0.01754116,0.042554863,30,30,0,Home,Experimenter,2,30,4,30,120,120,0,Yes,"Just says ""in a quiet, alert state""",Experimenter judge,Not reported,No,No,Repeated measures t tests,t-test,Yes,No,,,0,Not reported,13,
Koepke1983,Koepke,1983,Koepke1983_1,,Tongue protrusion,Baseline,1,19,14,-0.035425302,0.153872144,15,20,0,University,Experimenter,1,15,4,20,60,80,0,Yes,"Just says ""when babies were alert and attentive""",Experimenter judge,Not reported,No,No,Cochran's Q test for collapsed ranks of yes/no judgements and then ANOVA with random effects,ANOVA,Yes,No,11,5,1,Too fussy or sleepy to complete the experiment,6,0.833333333
Koepke1983,Koepke,1983,Koepke1983_1,,Tongue protrusion,Mouth opening,0,19,14,0.018335667,0.153853116,15,20,0,University,Experimenter,1,15,4,20,60,80,0,Yes,"Just says ""when babies were alert and attentive""",Experimenter judge,Not reported,No,No,Cochran's Q test for collapsed ranks of yes/no judgements and then ANOVA with random effects,ANOVA,Yes,No,11,5,1,Too fussy or sleepy to complete the experiment,6,0.833333333
Koepke1983,Koepke,1983,Koepke1983_1,,Mouth opening,Baseline,1,19,14,0.053760969,0.153906011,15,20,0,University,Experimenter,1,15,4,20,60,80,0,Yes,"Just says ""when babies were alert and attentive""",Experimenter judge,Not reported,No,No,Cochran's Q test for collapsed ranks of yes/no judgements and then ANOVA with random effects,ANOVA,Yes,No,11,5,1,Too fussy or sleepy to complete the experiment,6,0.833333333
Koepke1983,Koepke,1983,Koepke1983_1,,Mouth opening,Tongue protrusion,0,19,14,0.018335667,0.153853116,15,20,0,University,Experimenter,1,15,4,20,60,80,0,Yes,"Just says ""when babies were alert and attentive""",Experimenter judge,Not reported,No,No,Cochran's Q test for collapsed ranks of yes/no judgements and then ANOVA with random effects,ANOVA,Yes,No,11,5,1,Too fussy or sleepy to complete the experiment,6,0.833333333
Legerstee1991,Legerstee,1991,Legerstee1991_1,modeling phase,Tongue protrusion,Mouth opening,0,46.2,12,0.059049019,0.181904631,25,25,1,University,Experimenter,3,15,3,15,90,90,0,Yes,"Just says ""when they had achieved a state of alert inactivity""",Experimenter judge,Not reported,No,No,Two way analysis of variance with within-subject variable,ANOVA,Yes,No,54,24,1,"9 experimenter error, 15 not in a quiet alert state",30,0.8
Legerstee1991,Legerstee,1991,Legerstee1991_1,response phase,Tongue protrusion,Mouth opening,0,46.2,12,-0.189729927,0.18271068,25,25,0,University,Experimenter,3,15,3,15,90,90,0,Yes,"Just says ""when they had achieved a state of alert inactivity""",Experimenter judge,Not reported,No,No,Two way analysis of variance with within-subject variable,ANOVA,Yes,No,54,24,1,"9 experimenter error, 15 not in a quiet alert state",30,0.8
Legerstee1991,Legerstee,1991,Legerstee1991_1,modeling phase,Mouth opening,Tongue protrusion,0,46.2,12,0.059049019,0.181904631,25,25,1,University,Experimenter,3,15,3,15,90,90,0,Yes,"Just says ""when they had achieved a state of alert inactivity""",Experimenter judge,Not reported,No,No,Two way analysis of variance with within-subject variable,ANOVA,Yes,No,54,24,1,"9 experimenter error, 15 not in a quiet alert state",30,0.8
Legerstee1991,Legerstee,1991,Legerstee1991_1,response phase,Mouth opening,Tongue protrusion,0,46.2,12,-0.189729927,0.18271068,25,25,0,University,Experimenter,3,15,3,15,90,90,0,Yes,"Just says ""when they had achieved a state of alert inactivity""",Experimenter judge,Not reported,No,No,Two way analysis of variance with within-subject variable,ANOVA,Yes,No,54,24,1,"9 experimenter error, 15 not in a quiet alert state",30,0.8
McKenzie1983,McKenzie,1983,McKenzie1983_1,modeling phase,Mouth opening,All other conditions,0,22.5,14,0.317683926,0.155936277,15,60,1,Not reported,Experimenter,1,15,1,60,15,60,0,Yes,"Just says ""A new trial was not begun until the infant was active and alert""",Experimenter judge,Not reported,No,No,Analysis of variance,ANOVA,Unclear,No,,,0,Not reported,14,
McKenzie1983,McKenzie,1983,McKenzie1983_1,response phase,Mouth opening,All other conditions,0,22.5,14,0.56785697,0.160524351,15,60,0,Not reported,Experimenter,1,15,1,60,15,60,0,Yes,"Just says ""A new trial was not begun until the infant was active and alert""",Experimenter judge,Not reported,No,No,Analysis of variance,ANOVA,Unclear,No,,,0,Not reported,14,
McKenzie1983,McKenzie,1983,McKenzie1983_1,modeling phase,Tongue protrusion,All other conditions,0,22.5,14,0.452004084,0.158077378,15,60,1,Not reported,Experimenter,1,15,1,60,15,60,0,Yes,"Just says ""A new trial was not begun until the infant was active and alert""",Experimenter judge,Not reported,No,No,Analysis of variance,ANOVA,Unclear,No,,,0,Not reported,14,
McKenzie1983,McKenzie,1983,McKenzie1983_1,response phase,Tongue protrusion,All other conditions,0,22.5,14,0.698129369,0.163939918,15,60,0,Not reported,Experimenter,1,15,1,60,15,60,0,Yes,"Just says ""A new trial was not begun until the infant was active and alert""",Experimenter judge,Not reported,No,No,Analysis of variance,ANOVA,Unclear,No,,,0,Not reported,14,
McKenzie1983,McKenzie,1983,McKenzie1983_1,modeling phase,Arm raising,All other conditions,0,22.5,14,0.210493925,0.154763769,15,60,1,Not reported,Experimenter,1,15,1,60,15,60,0,Yes,"Just says ""A new trial was not begun until the infant was active and alert""",Experimenter judge,Not reported,No,No,Analysis of variance,ANOVA,Unclear,No,,,0,Not reported,14,
McKenzie1983,McKenzie,1983,McKenzie1983_1,response phase,Arm raising,All other conditions,0,22.5,14,0.692820323,0.163786982,15,60,0,Not reported,Experimenter,1,15,1,60,15,60,0,Yes,"Just says ""A new trial was not begun until the infant was active and alert""",Experimenter judge,Not reported,No,No,Analysis of variance,ANOVA,Unclear,No,,,0,Not reported,14,
McKenzie1983,McKenzie,1983,McKenzie1983_1,modeling phase,Hand to mouth,All other conditions,0,22.5,14,0.503526029,0.15909695,15,60,1,Not reported,Experimenter,1,15,1,60,15,60,0,Yes,"Just says ""A new trial was not begun until the infant was active and alert""",Experimenter judge,Not reported,No,No,Analysis of variance,ANOVA,Unclear,No,,,0,Not reported,14,
McKenzie1983,McKenzie,1983,McKenzie1983_1,response phase,Hand to mouth,All other conditions,0,22.5,14,0.390660191,0.157006827,15,60,0,Not reported,Experimenter,1,15,1,60,15,60,0,Yes,"Just says ""A new trial was not begun until the infant was active and alert""",Experimenter judge,Not reported,No,No,Analysis of variance,ANOVA,Unclear,No,,,0,Not reported,14,
Meltzoff1977,Meltzoff,1977,Meltzoff1977_1,Experiment 1,Lip protrusion,,0,14.3,6,3.606458322,1.180392498,,90,1,Not reported,Experimenter,Trials-to-criterion,15,1,20,,20,0,No,Not reported,Not reported,Not reported,No,No,Cochran's Q test for collapsed ranks of yes/no judgements,Q test,No,Unclear,,,0,Not reported,6,
Meltzoff1977,Meltzoff,1977,Meltzoff1977_1,Experiment 1,Mouth opening,,0,14.3,6,3.009684887,0.943492187,,90,1,Not reported,Experimenter,Trials-to-criterion,15,1,20,,20,0,No,Not reported,Not reported,Not reported,No,No,Cochran's Q test for collapsed ranks of yes/no judgements,Q test,No,Unclear,,,0,Not reported,6,
Meltzoff1977,Meltzoff,1977,Meltzoff1977_1,Experiment 1,Tongue protrusion,,0,14.3,6,2.29919829,0.717178767,,90,1,Not reported,Experimenter,Trials-to-criterion,15,1,20,,20,0,No,Not reported,Not reported,Not reported,No,No,Cochran's Q test for collapsed ranks of yes/no judgements,Q test,No,Unclear,,,0,Not reported,6,
Meltzoff1977,Meltzoff,1977,Meltzoff1977_1,Experiment 1,Sequential finger movement,,0,14.3,6,6.143665304,2.664677402,,90,1,Not reported,Experimenter,Trials-to-criterion,15,1,20,,20,0,No,Not reported,Not reported,Not reported,No,No,Cochran's Q test for collapsed ranks of yes/no judgements,Q test,No,Unclear,,,0,Not reported,6,
Meltzoff1977,Meltzoff,1977,Meltzoff1977_2,Experiment 2,Mouth opening,Baseline,1,19.3,12,1.313873572,0.22461811,15,150,1,Not reported,Experimenter,Trials-to-criterion,15,1,150,15,20,0,No,Not reported,Not reported,Not reported,No,No,Wilcoxon matched-pairs signed-rank test,Signed rank,Yes,Yes,,,0,Not reported,12,
Meltzoff1977,Meltzoff,1977,Meltzoff1977_2,Experiment 2,Mouth opening,Tongue protrusion,0,19.3,12,1.313873572,0.22461811,15,150,1,Not reported,Experimenter,Trials-to-criterion,15,1,150,15,150,0,No,Not reported,Not reported,Not reported,No,No,Wilcoxon matched-pairs signed-rank test,Signed rank,Yes,Yes,,,0,Not reported,12,
Meltzoff1977,Meltzoff,1977,Meltzoff1977_2,Experiment 2,Tongue protrusion,Baseline,1,19.3,12,2.067429667,0.287791705,15,150,1,Not reported,Experimenter,Trials-to-criterion,15,1,150,15,150,0,No,Not reported,Not reported,Not reported,No,No,Wilcoxon matched-pairs signed-rank test,Signed rank,Yes,Yes,,,0,Not reported,12,
Meltzoff1977,Meltzoff,1977,Meltzoff1977_2,Experiment 2,Tongue protrusion,Mouth opening,0,19.3,12,2.067429667,0.287791705,15,150,1,Not reported,Experimenter,Trials-to-criterion,15,1,150,15,150,0,No,Not reported,Not reported,Not reported,No,No,Wilcoxon matched-pairs signed-rank test,Signed rank,Yes,Yes,,,0,Not reported,12,
Meltzoff1983,Meltzoff,1983,Meltzoff1983_1,,Mouth opening,Tongue protrusion,0,1.3375,40,0.714674751,0.054640105,20,20,1,Hospital,Experimenter,6,20,6,20,120,120,0,Yes,"Just says ""while maintaining a quiet alert state""",Experimenter judge,Not reported,No,No,Wilcoxon matched-pairs signed-rank test,Signed rank,Yes,Yes,107,67,1,"Falling asleep 30%, crying 27%, spitting 24%, hiccuping 15%, bowel movement 4%",40,1.675
Meltzoff1983,Meltzoff,1983,Meltzoff1983_1,,Tongue protrusion,Mouth opening,0,1.3375,40,1.046713906,0.058485273,20,20,1,Hospital,Experimenter,6,20,6,20,120,120,0,Yes,"Just says ""while maintaining a quiet alert state""",Experimenter judge,Not reported,No,No,Wilcoxon matched-pairs signed-rank test,Signed rank,Yes,Yes,107,67,1,"Falling asleep 30%, crying 27%, spitting 24%, hiccuping 15%, bowel movement 4%",40,1.675
Meltzoff1989,Meltzoff,1989,Meltzoff1989_1,,Tongue protrusion,Head movement,0,1.689583333,40,0.799435041,0.055483868,20,20,1,Hospital,Experimenter,6,20,6,20,120,120,0,Yes,"Just says ""while maintaining a quiet alert state""",Experimenter judge,Not reported,No,No,Wilcoxon matched-pairs signed-rank test,Signed rank,Yes,Yes,93,53,1,"crying (36%), falling asleep (23%), spitting or choking uncontrollably (19%), hiccuping (13%), or having a bowel movement during the test session (9%).",40,1.325
Meltzoff1989,Meltzoff,1989,Meltzoff1989_1,,Head movement,Tongue protrusion,0,1.689583333,40,1.61942563,0.068524256,20,20,1,Hospital,Experimenter,6,20,6,20,120,120,0,Yes,"Just says ""while maintaining a quiet alert state""",Experimenter judge,Not reported,No,No,Wilcoxon matched-pairs signed-rank test,Signed rank,Yes,Yes,93,53,1,"crying (36%), falling asleep (23%), spitting or choking uncontrollably (19%), hiccuping (13%), or having a bowel movement during the test session (9%).",40,1.325
Meltzoff1992,Meltzoff,1992,Meltzoff1992_1,,Tongue protrusion,Mouth opening,0,42.84,32,1.512344073,0.083556167,15,15,1,University,Both mother and stranger,,15,,15,90,90,0,No,Not reported,Not reported,Not reported,No,No,Wilcoxon matched-pairs signed-rank test,Signed rank,Yes,Yes,57,25,1,"fussing (11), hiccoughing, spitting, choking uncontrollably (10), sleeping (1), or having a bowel movement during the test (3).",32,0.78125
Meltzoff1992,Meltzoff,1992,Meltzoff1992_1,,Mouth opening,Tongue protrusion,0,42.84,32,0.390881552,0.065788041,15,15,1,University,Both mother and stranger,,15,,15,90,90,0,No,Not reported,Not reported,Not reported,No,No,Wilcoxon matched-pairs signed-rank test,Signed rank,Yes,Yes,57,25,1,"fussing (11), hiccoughing, spitting, choking uncontrollably (10), sleeping (1), or having a bowel movement during the test (3).",32,0.78125
Meltzoff1994,Meltzoff,1994,Meltzoff1994_1,,Tongue protrusion,Baseline,1,41.72,40,4.068790016,0.160125261,15,15,1,University,Experimenter,,15,,15,90,90,0,Yes,"Just says ""when in a quiet alert state""",Experimenter judge,Not reported,No,No,"t test, not sure if repeated measures, but they also say they did nonparametric statistcs and square root transform, although not whether this fixed the distributional problem",t-test,Unclear,No,69,29,1,"failure to return for all three test sessions (n = 3), fussing (n = 14), hiccoughing, spitting up, or choking uncontrollably (n = 9). sleeping (n = 2), or having a bowel movement during the test (n = 1)",40,0.725
Meltzoff1994,Meltzoff,1994,Meltzoff1994_1,,Tongue protrusion,Mouth opening,0,41.72,40,5.418167042,0.244290165,15,15,1,University,Experimenter,,15,,15,90,90,0,Yes,"Just says ""when in a quiet alert state""",Experimenter judge,Not reported,No,No,"t test, not sure if repeated measures, but they also say they did nonparametric statistcs and square root transform, although not whether this fixed the distributional problem",t-test,Unclear,No,69,29,1,"failure to return for all three test sessions (n = 3), fussing (n = 14), hiccoughing, spitting up, or choking uncontrollably (n = 9). sleeping (n = 2), or having a bowel movement during the test (n = 1)",40,0.725
Meltzoff1994,Meltzoff,1994,Meltzoff1994_1,,Mouth opening,Baseline,1,41.72,40,1.414213562,0.064431295,15,15,1,University,Experimenter,,15,,15,90,90,0,Yes,"Just says ""when in a quiet alert state""",Experimenter judge,Not reported,No,No,"t test, not sure if repeated measures, but they also say they did nonparametric statistcs and square root transform, although not whether this fixed the distributional problem",t-test,Unclear,No,69,29,1,"failure to return for all three test sessions (n = 3), fussing (n = 14), hiccoughing, spitting up, or choking uncontrollably (n = 9). sleeping (n = 2), or having a bowel movement during the test (n = 1)",40,0.725
Meltzoff1994,Meltzoff,1994,Meltzoff1994_1,,Mouth opening,Tongue protrusion,0,41.72,40,1.713841237,0.070593371,15,15,1,University,Experimenter,,15,,15,90,90,0,Yes,"Just says ""when in a quiet alert state""",Experimenter judge,Not reported,No,No,"t test, not sure if repeated measures, but they also say they did nonparametric statistcs and square root transform, although not whether this fixed the distributional problem",t-test,Unclear,No,69,29,1,"failure to return for all three test sessions (n = 3), fussing (n = 14), hiccoughing, spitting up, or choking uncontrollably (n = 9). sleeping (n = 2), or having a bowel movement during the test (n = 1)",40,0.725
Nagy2007,Nagy,2007,Nagy2007_1,,Hand movement,Baseline,1,2.1,41,0.471179371,0.051422252,,,1,Hospital,Experimenter,Trials-to-criterion,Trials-to-criterion,Trials-to-criterion,Trials-to-criterion,,49.64,1,No,Not reported,Not reported,Not reported,No,No,Repeated measures analysis of variance,ANOVA,Yes,No,43,2,1,sleeping,41,0.048780488
Nagy2007,Nagy,2007,Nagy2007_1,,Finger movement,Baseline,1,2.1,41,0.755784361,0.053659314,,,1,Hospital,Experimenter,Trials-to-criterion,Trials-to-criterion,Trials-to-criterion,Trials-to-criterion,,49.64,1,No,Not reported,Not reported,Not reported,No,No,Repeated measures analysis of variance,ANOVA,Yes,No,43,2,1,sleeping,41,0.048780488
Nagy2007,Nagy,2007,Nagy2007_1,,Finger movement partial,Baseline,1,2.1,41,0.79689397,0.054068225,,,1,Hospital,Experimenter,Trials-to-criterion,Trials-to-criterion,Trials-to-criterion,Trials-to-criterion,,49.64,1,No,Not reported,Not reported,Not reported,No,No,Repeated measures analysis of variance,ANOVA,Yes,No,43,2,1,sleeping,41,0.048780488
Nagy2014,Nagy,2014,Nagy2014_1,Left condition,Index finger point,Baseline,1,2.11,37,2.020126009,0.084682414,,30,1,Hospital,Experimenter,Trials-to-criterion,Trials-to-criterion,Trials-to-criterion,Trials-to-criterion,,30,1,No,Not reported,Not reported,Not reported,No,No,Mixed effects MANOVA,ANOVA,Yes,No,133,12,1,fussiness or sleep or incomplete dataset,121,0.099173554
Nagy2014,Nagy,2014,Nagy2014_2,Right condition,Index finger point,Baseline,1,2.11,43,1.719547064,0.065638352,,30,1,Hospital,Experimenter,Trials-to-criterion,Trials-to-criterion,Trials-to-criterion,Trials-to-criterion,,30,1,No,Not reported,Not reported,Not reported,No,No,Mixed effects MANOVA,ANOVA,Yes,No,133,12,1,fussiness or sleep or incomplete dataset,121,0.099173554
Nagy2014,Nagy,2014,Nagy2014_3,Both condition,Index finger point,Baseline,1,2.11,41,0.326598632,0.050683333,,30,1,Hospital,Experimenter,Trials-to-criterion,Trials-to-criterion,Trials-to-criterion,Trials-to-criterion,,30,1,No,Not reported,Not reported,Not reported,No,No,Mixed effects MANOVA,ANOVA,Yes,No,133,12,1,fussiness or sleep or incomplete dataset,121,0.099173554
Oostenbroek2016,Oostenbroek,2016,Oostenbroek2016_1,1 week,Tongue protrusion,Mouth opening,0,7,74,0.26,0.027631938,15,15,1,Home,Experimenter,2,15,4,15,60,300,0,Yes,"Just says ""in a quiet, alert state""",Experimenter judge,Not reported,No,No,GLMM,GLMM,Yes,Yes,106,,1,,77,0.376623377
Oostenbroek2016,Oostenbroek,2016,Oostenbroek2016_1,1 week,Tongue protrusion,Tube protrusion,0,7,66,0.31,0.031144533,15,15,1,Home,Experimenter,2,15,4,15,60,300,0,Yes,"Just says ""in a quiet, alert state""",Experimenter judge,Not reported,No,No,GLMM,GLMM,Yes,Yes,106,,1,,77,0.376623377
Oostenbroek2016,Oostenbroek,2016,Oostenbroek2016_1,1 week,Tongue protrusion,Box opening,0,7,64,0.28,0.032062081,15,15,1,Home,Experimenter,2,15,4,15,60,300,0,Yes,"Just says ""in a quiet, alert state""",Experimenter judge,Not reported,No,No,GLMM,GLMM,Yes,Yes,106,,1,,77,0.376623377
Oostenbroek2016,Oostenbroek,2016,Oostenbroek2016_1,1 week,Tongue protrusion,Happy face,0,7,74,0.19,0.027522584,15,15,1,Home,Experimenter,2,15,4,15,60,300,0,Yes,"Just says ""in a quiet, alert state""",Experimenter judge,Not reported,No,No,GLMM,GLMM,Yes,Yes,106,,1,,77,0.376623377
Oostenbroek2016,Oostenbroek,2016,Oostenbroek2016_1,1 week,Tongue protrusion,Sad face,0,7,74,0.28,0.027669431,15,15,1,Home,Experimenter,2,15,4,15,60,300,0,Yes,"Just says ""in a quiet, alert state""",Experimenter judge,Not reported,No,No,GLMM,GLMM,Yes,Yes,106,,1,,77,0.376623377
Oostenbroek2016,Oostenbroek,2016,Oostenbroek2016_1,1 week,Tongue protrusion,Finger protrusion,0,7,75,0.25,0.027241029,15,15,1,Home,Experimenter,2,15,4,15,60,300,0,Yes,"Just says ""in a quiet, alert state""",Experimenter judge,Not reported,No,No,GLMM,GLMM,Yes,Yes,106,,1,,77,0.376623377
Oostenbroek2016,Oostenbroek,2016,Oostenbroek2016_1,1 week,Tongue protrusion,Grasping,0,7,73,0.2,0.027918596,15,15,1,Home,Experimenter,2,15,4,15,60,300,0,Yes,"Just says ""in a quiet, alert state""",Experimenter judge,Not reported,No,No,GLMM,GLMM,Yes,Yes,106,,1,,77,0.376623377
Oostenbroek2016,Oostenbroek,2016,Oostenbroek2016_1,1 week,Tongue protrusion,MMM sound,0,7,69,0.37,0.029922475,15,15,1,Home,Experimenter,2,15,4,15,60,300,0,Yes,"Just says ""in a quiet, alert state""",Experimenter judge,Not reported,No,No,GLMM,GLMM,Yes,Yes,106,,1,,77,0.376623377
Oostenbroek2016,Oostenbroek,2016,Oostenbroek2016_1,1 week,Tongue protrusion,EEE sound,0,7,69,0.39,0.029979179,15,15,1,Home,Experimenter,2,15,4,15,60,300,0,Yes,"Just says ""in a quiet, alert state""",Experimenter judge,Not reported,No,No,GLMM,GLMM,Yes,Yes,106,,1,,77,0.376623377
Oostenbroek2016,Oostenbroek,2016,Oostenbroek2016_1,1 week,Tongue protrusion,CLICK sound,0,7,67,0.2,0.030456841,15,15,1,Home,Experimenter,2,15,4,15,60,300,0,Yes,"Just says ""in a quiet, alert state""",Experimenter judge,Not reported,No,No,GLMM,GLMM,Yes,Yes,106,,1,,77,0.376623377
Oostenbroek2016,Oostenbroek,2016,Oostenbroek2016_1,1 week,Mouth opening,Tongue protrusion,0,7,73,0.05,0.027786579,15,15,1,Home,Experimenter,2,15,4,15,60,300,0,Yes,"Just says ""in a quiet, alert state""",Experimenter judge,Not reported,No,No,GLMM,GLMM,Yes,Yes,106,,1,,77,0.376623377
Oostenbroek2016,Oostenbroek,2016,Oostenbroek2016_1,1 week,Mouth opening,Tube protrusion,0,7,65,0.11,0.031298004,15,15,1,Home,Experimenter,2,15,4,15,60,300,0,Yes,"Just says ""in a quiet, alert state""",Experimenter judge,Not reported,No,No,GLMM,GLMM,Yes,Yes,106,,1,,77,0.376623377
Oostenbroek2016,Oostenbroek,2016,Oostenbroek2016_1,1 week,Mouth opening,Box opening,0,7,64,0.27,0.032039909,15,15,1,Home,Experimenter,2,15,4,15,60,300,0,Yes,"Just says ""in a quiet, alert state""",Experimenter judge,Not reported,No,No,GLMM,GLMM,Yes,Yes,106,,1,,77,0.376623377
Oostenbroek2016,Oostenbroek,2016,Oostenbroek2016_1,1 week,Mouth opening,Happy face,0,7,74,0.04,0.027402815,15,15,1,Home,Experimenter,2,15,4,15,60,300,0,Yes,"Just says ""in a quiet, alert state""",Experimenter judge,Not reported,No,No,GLMM,GLMM,Yes,Yes,106,,1,,77,0.376623377
Oostenbroek2016,Oostenbroek,2016,Oostenbroek2016_1,1 week,Mouth opening,Sad face,0,7,74,0.03,0.027400385,15,15,1,Home,Experimenter,2,15,4,15,60,300,0,Yes,"Just says ""in a quiet, alert state""",Experimenter judge,Not reported,No,No,GLMM,GLMM,Yes,Yes,106,,1,,77,0.376623377
Oostenbroek2016,Oostenbroek,2016,Oostenbroek2016_1,1 week,Mouth opening,Finger protrusion,0,7,74,0.05,0.027405939,15,15,1,Home,Experimenter,2,15,4,15,60,300,0,Yes,"Just says ""in a quiet, alert state""",Experimenter judge,Not reported,No,No,GLMM,GLMM,Yes,Yes,106,,1,,77,0.376623377
Oostenbroek2016,Oostenbroek,2016,Oostenbroek2016_1,1 week,Mouth opening,Grasping,0,7,72,0.14,0.028239,15,15,1,Home,Experimenter,2,15,4,15,60,300,0,Yes,"Just says ""in a quiet, alert state""",Experimenter judge,Not reported,No,No,GLMM,GLMM,Yes,Yes,106,,1,,77,0.376623377
Oostenbroek2016,Oostenbroek,2016,Oostenbroek2016_1,1 week,Mouth opening,MMM sound,0,7,68,0.1,0.029888617,15,15,1,Home,Experimenter,2,15,4,15,60,300,0,Yes,"Just says ""in a quiet, alert state""",Experimenter judge,Not reported,No,No,GLMM,GLMM,Yes,Yes,106,,1,,77,0.376623377
Oostenbroek2016,Oostenbroek,2016,Oostenbroek2016_1,1 week,Mouth opening,EEE sound,0,7,68,0.24,0.030068879,15,15,1,Home,Experimenter,2,15,4,15,60,300,0,Yes,"Just says ""in a quiet, alert state""",Experimenter judge,Not reported,No,No,GLMM,GLMM,Yes,Yes,106,,1,,77,0.376623377
Oostenbroek2016,Oostenbroek,2016,Oostenbroek2016_1,1 week,Mouth opening,CLICK sound,0,7,68,0.27,0.030126821,15,15,1,Home,Experimenter,2,15,4,15,60,300,0,Yes,"Just says ""in a quiet, alert state""",Experimenter judge,Not reported,No,No,GLMM,GLMM,Yes,Yes,106,,1,,77,0.376623377
Oostenbroek2016,Oostenbroek,2016,Oostenbroek2016_1,1 week,Happy face,Tongue protrusion,0,7,74,-0.12,0.027447251,15,15,1,Home,Experimenter,2,15,4,15,60,300,0,Yes,"Just says ""in a quiet, alert state""",Experimenter judge,Not reported,No,No,GLMM,GLMM,Yes,Yes,106,,1,,77,0.376623377
Oostenbroek2016,Oostenbroek,2016,Oostenbroek2016_1,1 week,Happy face,Mouth opening,0,7,74,-0.17,0.027497589,15,15,1,Home,Experimenter,2,15,4,15,60,300,0,Yes,"Just says ""in a quiet, alert state""",Experimenter judge,Not reported,No,No,GLMM,GLMM,Yes,Yes,106,,1,,77,0.376623377
Oostenbroek2016,Oostenbroek,2016,Oostenbroek2016_1,1 week,Happy face,Sad face,0,7,74,-0.12,0.027447251,15,15,1,Home,Experimenter,2,15,4,15,60,300,0,Yes,"Just says ""in a quiet, alert state""",Experimenter judge,Not reported,No,No,GLMM,GLMM,Yes,Yes,106,,1,,77,0.376623377
Oostenbroek2016,Oostenbroek,2016,Oostenbroek2016_1,1 week,Sad face,EEE sound,0,7,68,-0.12,0.02990528,15,15,1,Home,Experimenter,2,15,4,15,60,300,0,Yes,"Just says ""in a quiet, alert state""",Experimenter judge,Not reported,No,No,GLMM,GLMM,Yes,Yes,106,,1,,77,0.376623377
Oostenbroek2016,Oostenbroek,2016,Oostenbroek2016_1,1 week,Finger protrusion,Tongue protrusion,0,7,75,-0.02,0.027028397,15,15,1,Home,Experimenter,2,15,4,15,60,300,0,Yes,"Just says ""in a quiet, alert state""",Experimenter judge,Not reported,No,No,GLMM,GLMM,Yes,Yes,106,,1,,77,0.376623377
Oostenbroek2016,Oostenbroek,2016,Oostenbroek2016_1,1 week,Finger protrusion,Mouth opening,0,7,74,0.04,0.027402815,15,15,1,Home,Experimenter,2,15,4,15,60,300,0,Yes,"Just says ""in a quiet, alert state""",Experimenter judge,Not reported,No,No,GLMM,GLMM,Yes,Yes,106,,1,,77,0.376623377
Oostenbroek2016,Oostenbroek,2016,Oostenbroek2016_1,1 week,Finger protrusion,Tube protrusion,0,7,68,0.17,0.029960192,15,15,1,Home,Experimenter,2,15,4,15,60,300,0,Yes,"Just says ""in a quiet, alert state""",Experimenter judge,Not reported,No,No,GLMM,GLMM,Yes,Yes,106,,1,,77,0.376623377
Oostenbroek2016,Oostenbroek,2016,Oostenbroek2016_1,1 week,Finger protrusion,Box opening,0,7,65,0.22,0.031442017,15,15,1,Home,Experimenter,2,15,4,15,60,300,0,Yes,"Just says ""in a quiet, alert state""",Experimenter judge,Not reported,No,No,GLMM,GLMM,Yes,Yes,106,,1,,77,0.376623377
Oostenbroek2016,Oostenbroek,2016,Oostenbroek2016_1,1 week,Finger protrusion,Happy face,0,7,74,0.01,0.027397607,15,15,1,Home,Experimenter,2,15,4,15,60,300,0,Yes,"Just says ""in a quiet, alert state""",Experimenter judge,Not reported,No,No,GLMM,GLMM,Yes,Yes,106,,1,,77,0.376623377
Oostenbroek2016,Oostenbroek,2016,Oostenbroek2016_1,1 week,Finger protrusion,Sad face,0,7,74,0.09,0.02742538,15,15,1,Home,Experimenter,2,15,4,15,60,300,0,Yes,"Just says ""in a quiet, alert state""",Experimenter judge,Not reported,No,No,GLMM,GLMM,Yes,Yes,106,,1,,77,0.376623377
Oostenbroek2016,Oostenbroek,2016,Oostenbroek2016_1,1 week,Finger protrusion,Grasping,0,7,75,0.19,0.027150635,15,15,1,Home,Experimenter,2,15,4,15,60,300,0,Yes,"Just says ""in a quiet, alert state""",Experimenter judge,Not reported,No,No,GLMM,GLMM,Yes,Yes,106,,1,,77,0.376623377
Oostenbroek2016,Oostenbroek,2016,Oostenbroek2016_1,1 week,Finger protrusion,MMM sound,0,7,71,0.15,0.028652934,15,15,1,Home,Experimenter,2,15,4,15,60,300,0,Yes,"Just says ""in a quiet, alert state""",Experimenter judge,Not reported,No,No,GLMM,GLMM,Yes,Yes,106,,1,,77,0.376623377
Oostenbroek2016,Oostenbroek,2016,Oostenbroek2016_1,1 week,Finger protrusion,EEE sound,0,7,71,0.12,0.028623592,15,15,1,Home,Experimenter,2,15,4,15,60,300,0,Yes,"Just says ""in a quiet, alert state""",Experimenter judge,Not reported,No,No,GLMM,GLMM,Yes,Yes,106,,1,,77,0.376623377
Oostenbroek2016,Oostenbroek,2016,Oostenbroek2016_1,1 week,Finger protrusion,CLICK sound,0,7,69,0.04,0.029417734,15,15,1,Home,Experimenter,2,15,4,15,60,300,0,Yes,"Just says ""in a quiet, alert state""",Experimenter judge,Not reported,No,No,GLMM,GLMM,Yes,Yes,106,,1,,77,0.376623377
Oostenbroek2016,Oostenbroek,2016,Oostenbroek2016_1,1 week,Grasping,Tongue protrusion,0,7,73,-0.11,0.027820375,15,15,1,Home,Experimenter,2,15,4,15,60,300,0,Yes,"Just says ""in a quiet, alert state""",Experimenter judge,Not reported,No,No,GLMM,GLMM,Yes,Yes,106,,1,,77,0.376623377
Oostenbroek2016,Oostenbroek,2016,Oostenbroek2016_1,1 week,Grasping,Mouth opening,0,7,72,-0.01,0.028169371,15,15,1,Home,Experimenter,2,15,4,15,60,300,0,Yes,"Just says ""in a quiet, alert state""",Experimenter judge,Not reported,No,No,GLMM,GLMM,Yes,Yes,106,,1,,77,0.376623377
Oostenbroek2016,Oostenbroek,2016,Oostenbroek2016_1,1 week,Grasping,Tube protrusion,0,7,66,0.04,0.030775479,15,15,1,Home,Experimenter,2,15,4,15,60,300,0,Yes,"Just says ""in a quiet, alert state""",Experimenter judge,Not reported,No,No,GLMM,GLMM,Yes,Yes,106,,1,,77,0.376623377
Oostenbroek2016,Oostenbroek,2016,Oostenbroek2016_1,1 week,Grasping,Box opening,0,7,63,0.13,0.032327309,15,15,1,Home,Experimenter,2,15,4,15,60,300,0,Yes,"Just says ""in a quiet, alert state""",Experimenter judge,Not reported,No,No,GLMM,GLMM,Yes,Yes,106,,1,,77,0.376623377
Oostenbroek2016,Oostenbroek,2016,Oostenbroek2016_1,1 week,Grasping,Happy face,0,7,72,-0.05,0.028177941,15,15,1,Home,Experimenter,2,15,4,15,60,300,0,Yes,"Just says ""in a quiet, alert state""",Experimenter judge,Not reported,No,No,GLMM,GLMM,Yes,Yes,106,,1,,77,0.376623377
Oostenbroek2016,Oostenbroek,2016,Oostenbroek2016_1,1 week,Grasping,Sad face,0,7,72,0.01,0.028169371,15,15,1,Home,Experimenter,2,15,4,15,60,300,0,Yes,"Just says ""in a quiet, alert state""",Experimenter judge,Not reported,No,No,GLMM,GLMM,Yes,Yes,106,,1,,77,0.376623377
Oostenbroek2016,Oostenbroek,2016,Oostenbroek2016_1,1 week,Grasping,Finger protrusion,0,7,75,-0.08,0.027048941,15,15,1,Home,Experimenter,2,15,4,15,60,300,0,Yes,"Just says ""in a quiet, alert state""",Experimenter judge,Not reported,No,No,GLMM,GLMM,Yes,Yes,106,,1,,77,0.376623377
Oostenbroek2016,Oostenbroek,2016,Oostenbroek2016_1,1 week,Grasping,MMM sound,0,7,71,0.11,0.02861526,15,15,1,Home,Experimenter,2,15,4,15,60,300,0,Yes,"Just says ""in a quiet, alert state""",Experimenter judge,Not reported,No,No,GLMM,GLMM,Yes,Yes,106,,1,,77,0.376623377
Oostenbroek2016,Oostenbroek,2016,Oostenbroek2016_1,1 week,Grasping,EEE sound,0,7,69,0.09,0.029441982,15,15,1,Home,Experimenter,2,15,4,15,60,300,0,Yes,"Just says ""in a quiet, alert state""",Experimenter judge,Not reported,No,No,GLMM,GLMM,Yes,Yes,106,,1,,77,0.376623377
Oostenbroek2016,Oostenbroek,2016,Oostenbroek2016_1,1 week,Grasping,CLICK sound,0,7,69,-0.03,0.029415122,15,15,1,Home,Experimenter,2,15,4,15,60,300,0,Yes,"Just says ""in a quiet, alert state""",Experimenter judge,Not reported,No,No,GLMM,GLMM,Yes,Yes,106,,1,,77,0.376623377
Oostenbroek2016,Oostenbroek,2016,Oostenbroek2016_1,1 week,MMM sound,Tongue protrusion,0,7,69,-0.12,0.029465484,15,15,1,Home,Experimenter,2,15,4,15,60,300,0,Yes,"Just says ""in a quiet, alert state""",Experimenter judge,Not reported,No,No,GLMM,GLMM,Yes,Yes,106,,1,,77,0.376623377
Oostenbroek2016,Oostenbroek,2016,Oostenbroek2016_1,1 week,MMM sound,Mouth opening,0,7,68,-0.07,0.029869303,15,15,1,Home,Experimenter,2,15,4,15,60,300,0,Yes,"Just says ""in a quiet, alert state""",Experimenter judge,Not reported,No,No,GLMM,GLMM,Yes,Yes,106,,1,,77,0.376623377
Oostenbroek2016,Oostenbroek,2016,Oostenbroek2016_1,1 week,MMM sound,Tube protrusion,0,7,65,-0.18,0.03137854,15,15,1,Home,Experimenter,2,15,4,15,60,300,0,Yes,"Just says ""in a quiet, alert state""",Experimenter judge,Not reported,No,No,GLMM,GLMM,Yes,Yes,106,,1,,77,0.376623377
Oostenbroek2016,Oostenbroek,2016,Oostenbroek2016_1,1 week,MMM sound,Box opening,0,7,62,0,0.032786885,15,15,1,Home,Experimenter,2,15,4,15,60,300,0,Yes,"Just says ""in a quiet, alert state""",Experimenter judge,Not reported,No,No,GLMM,GLMM,Yes,Yes,106,,1,,77,0.376623377
Oostenbroek2016,Oostenbroek,2016,Oostenbroek2016_1,1 week,MMM sound,Happy face,0,7,68,0.12,0.02990528,15,15,1,Home,Experimenter,2,15,4,15,60,300,0,Yes,"Just says ""in a quiet, alert state""",Experimenter judge,Not reported,No,No,GLMM,GLMM,Yes,Yes,106,,1,,77,0.376623377
Oostenbroek2016,Oostenbroek,2016,Oostenbroek2016_1,1 week,MMM sound,Sad face,0,7,68,0,0.029850746,15,15,1,Home,Experimenter,2,15,4,15,60,300,0,Yes,"Just says ""in a quiet, alert state""",Experimenter judge,Not reported,No,No,GLMM,GLMM,Yes,Yes,106,,1,,77,0.376623377
Oostenbroek2016,Oostenbroek,2016,Oostenbroek2016_1,1 week,MMM sound,Finger protrusion,0,7,71,0,0.028571429,15,15,1,Home,Experimenter,2,15,4,15,60,300,0,Yes,"Just says ""in a quiet, alert state""",Experimenter judge,Not reported,No,No,GLMM,GLMM,Yes,Yes,106,,1,,77,0.376623377
Oostenbroek2016,Oostenbroek,2016,Oostenbroek2016_1,1 week,MMM sound,Grasping,0,7,71,-0.21,0.028731179,15,15,1,Home,Experimenter,2,15,4,15,60,300,0,Yes,"Just says ""in a quiet, alert state""",Experimenter judge,Not reported,No,No,GLMM,GLMM,Yes,Yes,106,,1,,77,0.376623377
Oostenbroek2016,Oostenbroek,2016,Oostenbroek2016_1,1 week,MMM sound,CLICK sound,0,7,69,-0.24,0.029626644,15,15,1,Home,Experimenter,2,15,4,15,60,300,0,Yes,"Just says ""in a quiet, alert state""",Experimenter judge,Not reported,No,No,GLMM,GLMM,Yes,Yes,106,,1,,77,0.376623377
Oostenbroek2016,Oostenbroek,2016,Oostenbroek2016_1,1 week,EEE sound,Box opening,0,7,62,-0.13,0.032857283,15,15,1,Home,Experimenter,2,15,4,15,60,300,0,Yes,"Just says ""in a quiet, alert state""",Experimenter judge,Not reported,No,No,GLMM,GLMM,Yes,Yes,106,,1,,77,0.376623377
Oostenbroek2016,Oostenbroek,2016,Oostenbroek2016_1,1 week,CLICK sound,Tongue protrusion,0,7,67,-0.03,0.030306491,15,15,1,Home,Experimenter,2,15,4,15,60,300,0,Yes,"Just says ""in a quiet, alert state""",Experimenter judge,Not reported,No,No,GLMM,GLMM,Yes,Yes,106,,1,,77,0.376623377
Oostenbroek2016,Oostenbroek,2016,Oostenbroek2016_1,1 week,CLICK sound,Mouth opening,0,7,66,-0.15,0.030857101,15,15,1,Home,Experimenter,2,15,4,15,60,300,0,Yes,"Just says ""in a quiet, alert state""",Experimenter judge,Not reported,No,No,GLMM,GLMM,Yes,Yes,106,,1,,77,0.376623377
Oostenbroek2016,Oostenbroek,2016,Oostenbroek2016_1,1 week,CLICK sound,Tube protrusion,0,7,64,0.06,0.031760544,15,15,1,Home,Experimenter,2,15,4,15,60,300,0,Yes,"Just says ""in a quiet, alert state""",Experimenter judge,Not reported,No,No,GLMM,GLMM,Yes,Yes,106,,1,,77,0.376623377
Oostenbroek2016,Oostenbroek,2016,Oostenbroek2016_1,1 week,CLICK sound,Box opening,0,7,61,0.05,0.033343924,15,15,1,Home,Experimenter,2,15,4,15,60,300,0,Yes,"Just says ""in a quiet, alert state""",Experimenter judge,Not reported,No,No,GLMM,GLMM,Yes,Yes,106,,1,,77,0.376623377
Oostenbroek2016,Oostenbroek,2016,Oostenbroek2016_1,1 week,CLICK sound,Happy face,0,7,66,0,0.030769231,15,15,1,Home,Experimenter,2,15,4,15,60,300,0,Yes,"Just says ""in a quiet, alert state""",Experimenter judge,Not reported,No,No,GLMM,GLMM,Yes,Yes,106,,1,,77,0.376623377
Oostenbroek2016,Oostenbroek,2016,Oostenbroek2016_1,1 week,CLICK sound,Sad face,0,7,66,-0.13,0.030835231,15,15,1,Home,Experimenter,2,15,4,15,60,300,0,Yes,"Just says ""in a quiet, alert state""",Experimenter judge,Not reported,No,No,GLMM,GLMM,Yes,Yes,106,,1,,77,0.376623377
Oostenbroek2016,Oostenbroek,2016,Oostenbroek2016_1,1 week,CLICK sound,Finger protrusion,0,7,69,-0.03,0.029415122,15,15,1,Home,Experimenter,2,15,4,15,60,300,0,Yes,"Just says ""in a quiet, alert state""",Experimenter judge,Not reported,No,No,GLMM,GLMM,Yes,Yes,106,,1,,77,0.376623377
Oostenbroek2016,Oostenbroek,2016,Oostenbroek2016_1,1 week,CLICK sound,Grasping,0,7,69,-0.03,0.029415122,15,15,1,Home,Experimenter,2,15,4,15,60,300,0,Yes,"Just says ""in a quiet, alert state""",Experimenter judge,Not reported,No,No,GLMM,GLMM,Yes,Yes,106,,1,,77,0.376623377
Oostenbroek2016,Oostenbroek,2016,Oostenbroek2016_1,1 week,CLICK sound,MMM sound,0,7,69,0.12,0.029465484,15,15,1,Home,Experimenter,2,15,4,15,60,300,0,Yes,"Just says ""in a quiet, alert state""",Experimenter judge,Not reported,No,No,GLMM,GLMM,Yes,Yes,106,,1,,77,0.376623377
Oostenbroek2016,Oostenbroek,2016,Oostenbroek2016_1,1 week,CLICK sound,EEE sound,0,7,69,-0.07,0.029430044,15,15,1,Home,Experimenter,2,15,4,15,60,300,0,Yes,"Just says ""in a quiet, alert state""",Experimenter judge,Not reported,No,No,GLMM,GLMM,Yes,Yes,106,,1,,77,0.376623377
Oostenbroek2016,Oostenbroek,2016,Oostenbroek2016_2,3 weeks,Tongue protrusion,Mouth opening,0,21,80,0.04,0.025321583,15,15,1,Home,Experimenter,2,15,4,15,60,300,0,Yes,"Just says ""in a quiet, alert state""",Experimenter judge,Not reported,No,No,GLMM,GLMM,Yes,Yes,106,,1,,82,0.292682927
Oostenbroek2016,Oostenbroek,2016,Oostenbroek2016_2,3 weeks,Tongue protrusion,Tube protrusion,0,21,71,0.23,0.028763056,15,15,1,Home,Experimenter,2,15,4,15,60,300,0,Yes,"Just says ""in a quiet, alert state""",Experimenter judge,Not reported,No,No,GLMM,GLMM,Yes,Yes,106,,1,,82,0.292682927
Oostenbroek2016,Oostenbroek,2016,Oostenbroek2016_2,3 weeks,Tongue protrusion,Box opening,0,21,70,0.29,0.029294633,15,15,1,Home,Experimenter,2,15,4,15,60,300,0,Yes,"Just says ""in a quiet, alert state""",Experimenter judge,Not reported,No,No,GLMM,GLMM,Yes,Yes,106,,1,,82,0.292682927
Oostenbroek2016,Oostenbroek,2016,Oostenbroek2016_2,3 weeks,Tongue protrusion,Happy face,0,21,78,0.08,0.025995075,15,15,1,Home,Experimenter,2,15,4,15,60,300,0,Yes,"Just says ""in a quiet, alert state""",Experimenter judge,Not reported,No,No,GLMM,GLMM,Yes,Yes,106,,1,,82,0.292682927
Oostenbroek2016,Oostenbroek,2016,Oostenbroek2016_2,3 weeks,Tongue protrusion,Sad face,0,21,78,-0.03,0.025976986,15,15,1,Home,Experimenter,2,15,4,15,60,300,0,Yes,"Just says ""in a quiet, alert state""",Experimenter judge,Not reported,No,No,GLMM,GLMM,Yes,Yes,106,,1,,82,0.292682927
Oostenbroek2016,Oostenbroek,2016,Oostenbroek2016_2,3 weeks,Tongue protrusion,Finger protrusion,0,21,79,0.09,0.02566732,15,15,1,Home,Experimenter,2,15,4,15,60,300,0,Yes,"Just says ""in a quiet, alert state""",Experimenter judge,Not reported,No,No,GLMM,GLMM,Yes,Yes,106,,1,,82,0.292682927
Oostenbroek2016,Oostenbroek,2016,Oostenbroek2016_2,3 weeks,Tongue protrusion,Grasping,0,21,77,0.3,0.026615738,15,15,1,Home,Experimenter,2,15,4,15,60,300,0,Yes,"Just says ""in a quiet, alert state""",Experimenter judge,Not reported,No,No,GLMM,GLMM,Yes,Yes,106,,1,,82,0.292682927
Oostenbroek2016,Oostenbroek,2016,Oostenbroek2016_2,3 weeks,Tongue protrusion,MMM sound,0,21,74,0.36,0.027847176,15,15,1,Home,Experimenter,2,15,4,15,60,300,0,Yes,"Just says ""in a quiet, alert state""",Experimenter judge,Not reported,No,No,GLMM,GLMM,Yes,Yes,106,,1,,82,0.292682927
Oostenbroek2016,Oostenbroek,2016,Oostenbroek2016_2,3 weeks,Tongue protrusion,EEE sound,0,21,74,0.39,0.027925286,15,15,1,Home,Experimenter,2,15,4,15,60,300,0,Yes,"Just says ""in a quiet, alert state""",Experimenter judge,Not reported,No,No,GLMM,GLMM,Yes,Yes,106,,1,,82,0.292682927
Oostenbroek2016,Oostenbroek,2016,Oostenbroek2016_2,3 weeks,Tongue protrusion,CLICK sound,0,21,74,0.3,0.027709702,15,15,1,Home,Experimenter,2,15,4,15,60,300,0,Yes,"Just says ""in a quiet, alert state""",Experimenter judge,Not reported,No,No,GLMM,GLMM,Yes,Yes,106,,1,,82,0.292682927
Oostenbroek2016,Oostenbroek,2016,Oostenbroek2016_2,3 weeks,Mouth opening,Tongue protrusion,0,21,80,-0.08,0.025336965,15,15,1,Home,Experimenter,2,15,4,15,60,300,0,Yes,"Just says ""in a quiet, alert state""",Experimenter judge,Not reported,No,No,GLMM,GLMM,Yes,Yes,106,,1,,82,0.292682927
Oostenbroek2016,Oostenbroek,2016,Oostenbroek2016_2,3 weeks,Mouth opening,Tube protrusion,0,21,70,0.18,0.0291046,15,15,1,Home,Experimenter,2,15,4,15,60,300,0,Yes,"Just says ""in a quiet, alert state""",Experimenter judge,Not reported,No,No,GLMM,GLMM,Yes,Yes,106,,1,,82,0.292682927
Oostenbroek2016,Oostenbroek,2016,Oostenbroek2016_2,3 weeks,Mouth opening,Box opening,0,21,69,0.24,0.029626644,15,15,1,Home,Experimenter,2,15,4,15,60,300,0,Yes,"Just says ""in a quiet, alert state""",Experimenter judge,Not reported,No,No,GLMM,GLMM,Yes,Yes,106,,1,,82,0.292682927
Oostenbroek2016,Oostenbroek,2016,Oostenbroek2016_2,3 weeks,Mouth opening,Happy face,0,21,78,0.15,0.026048027,15,15,1,Home,Experimenter,2,15,4,15,60,300,0,Yes,"Just says ""in a quiet, alert state""",Experimenter judge,Not reported,No,No,GLMM,GLMM,Yes,Yes,106,,1,,82,0.292682927
Oostenbroek2016,Oostenbroek,2016,Oostenbroek2016_2,3 weeks,Mouth opening,Sad face,0,21,78,0.02,0.025975342,15,15,1,Home,Experimenter,2,15,4,15,60,300,0,Yes,"Just says ""in a quiet, alert state""",Experimenter judge,Not reported,No,No,GLMM,GLMM,Yes,Yes,106,,1,,82,0.292682927
Oostenbroek2016,Oostenbroek,2016,Oostenbroek2016_2,3 weeks,Mouth opening,Finger protrusion,0,21,78,0.09,0.026000666,15,15,1,Home,Experimenter,2,15,4,15,60,300,0,Yes,"Just says ""in a quiet, alert state""",Experimenter judge,Not reported,No,No,GLMM,GLMM,Yes,Yes,106,,1,,82,0.292682927
Oostenbroek2016,Oostenbroek,2016,Oostenbroek2016_2,3 weeks,Mouth opening,Grasping,0,21,76,0.11,0.026707538,15,15,1,Home,Experimenter,2,15,4,15,60,300,0,Yes,"Just says ""in a quiet, alert state""",Experimenter judge,Not reported,No,No,GLMM,GLMM,Yes,Yes,106,,1,,82,0.292682927
Oostenbroek2016,Oostenbroek,2016,Oostenbroek2016_2,3 weeks,Mouth opening,MMM sound,0,21,73,0.16,0.027867901,15,15,1,Home,Experimenter,2,15,4,15,60,300,0,Yes,"Just says ""in a quiet, alert state""",Experimenter judge,Not reported,No,No,GLMM,GLMM,Yes,Yes,106,,1,,82,0.292682927
Oostenbroek2016,Oostenbroek,2016,Oostenbroek2016_2,3 weeks,Mouth opening,EEE sound,0,21,73,0.14,0.027846779,15,15,1,Home,Experimenter,2,15,4,15,60,300,0,Yes,"Just says ""in a quiet, alert state""",Experimenter judge,Not reported,No,No,GLMM,GLMM,Yes,Yes,106,,1,,82,0.292682927
Oostenbroek2016,Oostenbroek,2016,Oostenbroek2016_2,3 weeks,Mouth opening,CLICK sound,0,21,73,0.05,0.027786579,15,15,1,Home,Experimenter,2,15,4,15,60,300,0,Yes,"Just says ""in a quiet, alert state""",Experimenter judge,Not reported,No,No,GLMM,GLMM,Yes,Yes,106,,1,,82,0.292682927
Oostenbroek2016,Oostenbroek,2016,Oostenbroek2016_2,3 weeks,Happy face,Tongue protrusion,0,21,78,0.1,0.026006915,15,15,1,Home,Experimenter,2,15,4,15,60,300,0,Yes,"Just says ""in a quiet, alert state""",Experimenter judge,Not reported,No,No,GLMM,GLMM,Yes,Yes,106,,1,,82,0.292682927
Oostenbroek2016,Oostenbroek,2016,Oostenbroek2016_2,3 weeks,Happy face,Mouth opening,0,21,78,0.17,0.026069076,15,15,1,Home,Experimenter,2,15,4,15,60,300,0,Yes,"Just says ""in a quiet, alert state""",Experimenter judge,Not reported,No,No,GLMM,GLMM,Yes,Yes,106,,1,,82,0.292682927
Oostenbroek2016,Oostenbroek,2016,Oostenbroek2016_2,3 weeks,Happy face,Tube protrusion,0,21,68,0.14,0.029924972,15,15,1,Home,Experimenter,2,15,4,15,60,300,0,Yes,"Just says ""in a quiet, alert state""",Experimenter judge,Not reported,No,No,GLMM,GLMM,Yes,Yes,106,,1,,82,0.292682927
Oostenbroek2016,Oostenbroek,2016,Oostenbroek2016_2,3 weeks,Happy face,Box opening,0,21,67,0.22,0.030489141,15,15,1,Home,Experimenter,2,15,4,15,60,300,0,Yes,"Just says ""in a quiet, alert state""",Experimenter judge,Not reported,No,No,GLMM,GLMM,Yes,Yes,106,,1,,82,0.292682927
Oostenbroek2016,Oostenbroek,2016,Oostenbroek2016_2,3 weeks,Happy face,Sad face,0,21,78,0.15,0.026048027,15,15,1,Home,Experimenter,2,15,4,15,60,300,0,Yes,"Just says ""in a quiet, alert state""",Experimenter judge,Not reported,No,No,GLMM,GLMM,Yes,Yes,106,,1,,82,0.292682927
Oostenbroek2016,Oostenbroek,2016,Oostenbroek2016_2,3 weeks,Happy face,Finger protrusion,0,21,76,0.17,0.026764284,15,15,1,Home,Experimenter,2,15,4,15,60,300,0,Yes,"Just says ""in a quiet, alert state""",Experimenter judge,Not reported,No,No,GLMM,GLMM,Yes,Yes,106,,1,,82,0.292682927
Oostenbroek2016,Oostenbroek,2016,Oostenbroek2016_2,3 weeks,Happy face,Grasping,0,21,74,0.19,0.027522584,15,15,1,Home,Experimenter,2,15,4,15,60,300,0,Yes,"Just says ""in a quiet, alert state""",Experimenter judge,Not reported,No,No,GLMM,GLMM,Yes,Yes,106,,1,,82,0.292682927
Oostenbroek2016,Oostenbroek,2016,Oostenbroek2016_2,3 weeks,Happy face,MMM sound,0,21,71,-0.02,0.028572878,15,15,1,Home,Experimenter,2,15,4,15,60,300,0,Yes,"Just says ""in a quiet, alert state""",Experimenter judge,Not reported,No,No,GLMM,GLMM,Yes,Yes,106,,1,,82,0.292682927
Oostenbroek2016,Oostenbroek,2016,Oostenbroek2016_2,3 weeks,Happy face,EEE sound,0,21,71,-0.02,0.028572878,15,15,1,Home,Experimenter,2,15,4,15,60,300,0,Yes,"Just says ""in a quiet, alert state""",Experimenter judge,Not reported,No,No,GLMM,GLMM,Yes,Yes,106,,1,,82,0.292682927
Oostenbroek2016,Oostenbroek,2016,Oostenbroek2016_2,3 weeks,Happy face,CLICK sound,0,21,71,0.17,0.028676117,15,15,1,Home,Experimenter,2,15,4,15,60,300,0,Yes,"Just says ""in a quiet, alert state""",Experimenter judge,Not reported,No,No,GLMM,GLMM,Yes,Yes,106,,1,,82,0.292682927
Oostenbroek2016,Oostenbroek,2016,Oostenbroek2016_2,3 weeks,Sad face,Mouth opening,0,21,78,-0.15,0.026048027,15,15,1,Home,Experimenter,2,15,4,15,60,300,0,Yes,"Just says ""in a quiet, alert state""",Experimenter judge,Not reported,No,No,GLMM,GLMM,Yes,Yes,106,,1,,82,0.292682927
Oostenbroek2016,Oostenbroek,2016,Oostenbroek2016_2,3 weeks,Sad face,Tube protrusion,0,21,68,-0.12,0.02990528,15,15,1,Home,Experimenter,2,15,4,15,60,300,0,Yes,"Just says ""in a quiet, alert state""",Experimenter judge,Not reported,No,No,GLMM,GLMM,Yes,Yes,106,,1,,82,0.292682927
Oostenbroek2016,Oostenbroek,2016,Oostenbroek2016_2,3 weeks,Finger protrusion,Tongue protrusion,0,21,79,0.17,0.025734841,15,15,1,Home,Experimenter,2,15,4,15,60,300,0,Yes,"Just says ""in a quiet, alert state""",Experimenter judge,Not reported,No,No,GLMM,GLMM,Yes,Yes,106,,1,,82,0.292682927
Oostenbroek2016,Oostenbroek,2016,Oostenbroek2016_2,3 weeks,Finger protrusion,Mouth opening,0,21,78,0.22,0.02613321,15,15,1,Home,Experimenter,2,15,4,15,60,300,0,Yes,"Just says ""in a quiet, alert state""",Experimenter judge,Not reported,No,No,GLMM,GLMM,Yes,Yes,106,,1,,82,0.292682927
Oostenbroek2016,Oostenbroek,2016,Oostenbroek2016_2,3 weeks,Finger protrusion,Tube protrusion,0,21,71,0.33,0.028965913,15,15,1,Home,Experimenter,2,15,4,15,60,300,0,Yes,"Just says ""in a quiet, alert state""",Experimenter judge,Not reported,No,No,GLMM,GLMM,Yes,Yes,106,,1,,82,0.292682927
Oostenbroek2016,Oostenbroek,2016,Oostenbroek2016_2,3 weeks,Finger protrusion,Box opening,0,21,70,0.33,0.029385791,15,15,1,Home,Experimenter,2,15,4,15,60,300,0,Yes,"Just says ""in a quiet, alert state""",Experimenter judge,Not reported,No,No,GLMM,GLMM,Yes,Yes,106,,1,,82,0.292682927
Oostenbroek2016,Oostenbroek,2016,Oostenbroek2016_2,3 weeks,Finger protrusion,Happy face,0,21,76,0.06,0.026678827,15,15,1,Home,Experimenter,2,15,4,15,60,300,0,Yes,"Just says ""in a quiet, alert state""",Experimenter judge,Not reported,No,No,GLMM,GLMM,Yes,Yes,106,,1,,82,0.292682927
Oostenbroek2016,Oostenbroek,2016,Oostenbroek2016_2,3 weeks,Finger protrusion,Sad face,0,21,76,0.07,0.026683218,15,15,1,Home,Experimenter,2,15,4,15,60,300,0,Yes,"Just says ""in a quiet, alert state""",Experimenter judge,Not reported,No,No,GLMM,GLMM,Yes,Yes,106,,1,,82,0.292682927
Oostenbroek2016,Oostenbroek,2016,Oostenbroek2016_2,3 weeks,Finger protrusion,Grasping,0,21,78,0.17,0.026069076,15,15,1,Home,Experimenter,2,15,4,15,60,300,0,Yes,"Just says ""in a quiet, alert state""",Experimenter judge,Not reported,No,No,GLMM,GLMM,Yes,Yes,106,,1,,82,0.292682927
Oostenbroek2016,Oostenbroek,2016,Oostenbroek2016_2,3 weeks,Finger protrusion,MMM sound,0,21,74,0.32,0.027752749,15,15,1,Home,Experimenter,2,15,4,15,60,300,0,Yes,"Just says ""in a quiet, alert state""",Experimenter judge,Not reported,No,No,GLMM,GLMM,Yes,Yes,106,,1,,82,0.292682927
Oostenbroek2016,Oostenbroek,2016,Oostenbroek2016_2,3 weeks,Finger protrusion,EEE sound,0,21,73,0.37,0.028259727,15,15,1,Home,Experimenter,2,15,4,15,60,300,0,Yes,"Just says ""in a quiet, alert state""",Experimenter judge,Not reported,No,No,GLMM,GLMM,Yes,Yes,106,,1,,82,0.292682927
Oostenbroek2016,Oostenbroek,2016,Oostenbroek2016_2,3 weeks,Finger protrusion,CLICK sound,0,21,73,0.12,0.027828472,15,15,1,Home,Experimenter,2,15,4,15,60,300,0,Yes,"Just says ""in a quiet, alert state""",Experimenter judge,Not reported,No,No,GLMM,GLMM,Yes,Yes,106,,1,,82,0.292682927
Oostenbroek2016,Oostenbroek,2016,Oostenbroek2016_2,3 weeks,Grasping,Tongue protrusion,0,21,77,-0.09,0.026342785,15,15,1,Home,Experimenter,2,15,4,15,60,300,0,Yes,"Just says ""in a quiet, alert state""",Experimenter judge,Not reported,No,No,GLMM,GLMM,Yes,Yes,106,,1,,82,0.292682927
Oostenbroek2016,Oostenbroek,2016,Oostenbroek2016_2,3 weeks,Grasping,Mouth opening,0,21,76,-0.01,0.026667004,15,15,1,Home,Experimenter,2,15,4,15,60,300,0,Yes,"Just says ""in a quiet, alert state""",Experimenter judge,Not reported,No,No,GLMM,GLMM,Yes,Yes,106,,1,,82,0.292682927
Oostenbroek2016,Oostenbroek,2016,Oostenbroek2016_2,3 weeks,Grasping,Tube protrusion,0,21,69,-0.01,0.029412138,15,15,1,Home,Experimenter,2,15,4,15,60,300,0,Yes,"Just says ""in a quiet, alert state""",Experimenter judge,Not reported,No,No,GLMM,GLMM,Yes,Yes,106,,1,,82,0.292682927
Oostenbroek2016,Oostenbroek,2016,Oostenbroek2016_2,3 weeks,Grasping,Box opening,0,21,68,0.28,0.03014765,15,15,1,Home,Experimenter,2,15,4,15,60,300,0,Yes,"Just says ""in a quiet, alert state""",Experimenter judge,Not reported,No,No,GLMM,GLMM,Yes,Yes,106,,1,,82,0.292682927
Oostenbroek2016,Oostenbroek,2016,Oostenbroek2016_2,3 weeks,Grasping,Happy face,0,21,74,0.06,0.027409758,15,15,1,Home,Experimenter,2,15,4,15,60,300,0,Yes,"Just says ""in a quiet, alert state""",Experimenter judge,Not reported,No,No,GLMM,GLMM,Yes,Yes,106,,1,,82,0.292682927
Oostenbroek2016,Oostenbroek,2016,Oostenbroek2016_2,3 weeks,Grasping,Sad face,0,21,74,-0.11,0.027439266,15,15,1,Home,Experimenter,2,15,4,15,60,300,0,Yes,"Just says ""in a quiet, alert state""",Experimenter judge,Not reported,No,No,GLMM,GLMM,Yes,Yes,106,,1,,82,0.292682927
Oostenbroek2016,Oostenbroek,2016,Oostenbroek2016_2,3 weeks,Grasping,Finger protrusion,0,21,7,0.09,0.333727083,15,15,1,Home,Experimenter,2,15,4,15,60,300,0,Yes,"Just says ""in a quiet, alert state""",Experimenter judge,Not reported,No,No,GLMM,GLMM,Yes,Yes,106,,1,,82,0.292682927
Oostenbroek2016,Oostenbroek,2016,Oostenbroek2016_2,3 weeks,Grasping,MMM sound,0,21,74,0.18,0.027509739,15,15,1,Home,Experimenter,2,15,4,15,60,300,0,Yes,"Just says ""in a quiet, alert state""",Experimenter judge,Not reported,No,No,GLMM,GLMM,Yes,Yes,106,,1,,82,0.292682927
Oostenbroek2016,Oostenbroek,2016,Oostenbroek2016_2,3 weeks,Grasping,EEE sound,0,21,74,0.21,0.027550357,15,15,1,Home,Experimenter,2,15,4,15,60,300,0,Yes,"Just says ""in a quiet, alert state""",Experimenter judge,Not reported,No,No,GLMM,GLMM,Yes,Yes,106,,1,,82,0.292682927
Oostenbroek2016,Oostenbroek,2016,Oostenbroek2016_2,3 weeks,Grasping,CLICK sound,0,21,73,0.15,0.027856988,15,15,1,Home,Experimenter,2,15,4,15,60,300,0,Yes,"Just says ""in a quiet, alert state""",Experimenter judge,Not reported,No,No,GLMM,GLMM,Yes,Yes,106,,1,,82,0.292682927
Oostenbroek2016,Oostenbroek,2016,Oostenbroek2016_2,3 weeks,MMM sound,Tongue protrusion,0,21,74,0,0.02739726,15,15,1,Home,Experimenter,2,15,4,15,60,300,0,Yes,"Just says ""in a quiet, alert state""",Experimenter judge,Not reported,No,No,GLMM,GLMM,Yes,Yes,106,,1,,82,0.292682927
Oostenbroek2016,Oostenbroek,2016,Oostenbroek2016_2,3 weeks,MMM sound,Mouth opening,0,21,73,-0.08,0.027800309,15,15,1,Home,Experimenter,2,15,4,15,60,300,0,Yes,"Just says ""in a quiet, alert state""",Experimenter judge,Not reported,No,No,GLMM,GLMM,Yes,Yes,106,,1,,82,0.292682927
Oostenbroek2016,Oostenbroek,2016,Oostenbroek2016_2,3 weeks,MMM sound,Tube protrusion,0,21,68,-0.09,0.029881421,15,15,1,Home,Experimenter,2,15,4,15,60,300,0,Yes,"Just says ""in a quiet, alert state""",Experimenter judge,Not reported,No,No,GLMM,GLMM,Yes,Yes,106,,1,,82,0.292682927
Oostenbroek2016,Oostenbroek,2016,Oostenbroek2016_2,3 weeks,MMM sound,Box opening,0,21,67,0.05,0.030312643,15,15,1,Home,Experimenter,2,15,4,15,60,300,0,Yes,"Just says ""in a quiet, alert state""",Experimenter judge,Not reported,No,No,GLMM,GLMM,Yes,Yes,106,,1,,82,0.292682927
Oostenbroek2016,Oostenbroek,2016,Oostenbroek2016_2,3 weeks,MMM sound,Happy face,0,21,71,0.07,0.028589179,15,15,1,Home,Experimenter,2,15,4,15,60,300,0,Yes,"Just says ""in a quiet, alert state""",Experimenter judge,Not reported,No,No,GLMM,GLMM,Yes,Yes,106,,1,,82,0.292682927
Oostenbroek2016,Oostenbroek,2016,Oostenbroek2016_2,3 weeks,MMM sound,Sad face,0,21,71,0,0.028571429,15,15,1,Home,Experimenter,2,15,4,15,60,300,0,Yes,"Just says ""in a quiet, alert state""",Experimenter judge,Not reported,No,No,GLMM,GLMM,Yes,Yes,106,,1,,82,0.292682927
Oostenbroek2016,Oostenbroek,2016,Oostenbroek2016_2,3 weeks,MMM sound,Finger protrusion,0,21,73,0.21,0.02793303,15,15,1,Home,Experimenter,2,15,4,15,60,300,0,Yes,"Just says ""in a quiet, alert state""",Experimenter judge,Not reported,No,No,GLMM,GLMM,Yes,Yes,106,,1,,82,0.292682927
Oostenbroek2016,Oostenbroek,2016,Oostenbroek2016_2,3 weeks,MMM sound,Grasping,0,21,74,0.04,0.027402815,15,15,1,Home,Experimenter,2,15,4,15,60,300,0,Yes,"Just says ""in a quiet, alert state""",Experimenter judge,Not reported,No,No,GLMM,GLMM,Yes,Yes,106,,1,,82,0.292682927
Oostenbroek2016,Oostenbroek,2016,Oostenbroek2016_2,3 weeks,MMM sound,EEE sound,0,21,74,0.2,0.027536123,15,15,1,Home,Experimenter,2,15,4,15,60,300,0,Yes,"Just says ""in a quiet, alert state""",Experimenter judge,Not reported,No,No,GLMM,GLMM,Yes,Yes,106,,1,,82,0.292682927
Oostenbroek2016,Oostenbroek,2016,Oostenbroek2016_2,3 weeks,MMM sound,CLICK sound,0,21,74,0.13,0.02745593,15,15,1,Home,Experimenter,2,15,4,15,60,300,0,Yes,"Just says ""in a quiet, alert state""",Experimenter judge,Not reported,No,No,GLMM,GLMM,Yes,Yes,106,,1,,82,0.292682927
Oostenbroek2016,Oostenbroek,2016,Oostenbroek2016_2,3 weeks,CLICK sound,Tongue protrusion,0,21,74,-0.15,0.027475371,15,15,1,Home,Experimenter,2,15,4,15,60,300,0,Yes,"Just says ""in a quiet, alert state""",Experimenter judge,Not reported,No,No,GLMM,GLMM,Yes,Yes,106,,1,,82,0.292682927
Oostenbroek2016,Oostenbroek,2016,Oostenbroek2016_2,3 weeks,CLICK sound,Mouth opening,0,21,73,-0.08,0.027800309,15,15,1,Home,Experimenter,2,15,4,15,60,300,0,Yes,"Just says ""in a quiet, alert state""",Experimenter judge,Not reported,No,No,GLMM,GLMM,Yes,Yes,106,,1,,82,0.292682927
Oostenbroek2016,Oostenbroek,2016,Oostenbroek2016_2,3 weeks,CLICK sound,Tube protrusion,0,21,67,-0.11,0.030349558,15,15,1,Home,Experimenter,2,15,4,15,60,300,0,Yes,"Just says ""in a quiet, alert state""",Experimenter judge,Not reported,No,No,GLMM,GLMM,Yes,Yes,106,,1,,82,0.292682927
Oostenbroek2016,Oostenbroek,2016,Oostenbroek2016_2,3 weeks,CLICK sound,Box opening,0,21,66,0.12,0.030825467,15,15,1,Home,Experimenter,2,15,4,15,60,300,0,Yes,"Just says ""in a quiet, alert state""",Experimenter judge,Not reported,No,No,GLMM,GLMM,Yes,Yes,106,,1,,82,0.292682927
Oostenbroek2016,Oostenbroek,2016,Oostenbroek2016_2,3 weeks,CLICK sound,Happy face,0,21,71,-0.07,0.028589179,15,15,1,Home,Experimenter,2,15,4,15,60,300,0,Yes,"Just says ""in a quiet, alert state""",Experimenter judge,Not reported,No,No,GLMM,GLMM,Yes,Yes,106,,1,,82,0.292682927
Oostenbroek2016,Oostenbroek,2016,Oostenbroek2016_2,3 weeks,CLICK sound,Sad face,0,21,71,-0.11,0.02861526,15,15,1,Home,Experimenter,2,15,4,15,60,300,0,Yes,"Just says ""in a quiet, alert state""",Experimenter judge,Not reported,No,No,GLMM,GLMM,Yes,Yes,106,,1,,82,0.292682927
Oostenbroek2016,Oostenbroek,2016,Oostenbroek2016_2,3 weeks,CLICK sound,Finger protrusion,0,21,72,0,0.028169014,15,15,1,Home,Experimenter,2,15,4,15,60,300,0,Yes,"Just says ""in a quiet, alert state""",Experimenter judge,Not reported,No,No,GLMM,GLMM,Yes,Yes,106,,1,,82,0.292682927
Oostenbroek2016,Oostenbroek,2016,Oostenbroek2016_2,3 weeks,CLICK sound,Grasping,0,21,73,-0.21,0.02793303,15,15,1,Home,Experimenter,2,15,4,15,60,300,0,Yes,"Just says ""in a quiet, alert state""",Experimenter judge,Not reported,No,No,GLMM,GLMM,Yes,Yes,106,,1,,82,0.292682927
Oostenbroek2016,Oostenbroek,2016,Oostenbroek2016_2,3 weeks,CLICK sound,MMM sound,0,21,74,0.07,0.027414271,15,15,1,Home,Experimenter,2,15,4,15,60,300,0,Yes,"Just says ""in a quiet, alert state""",Experimenter judge,Not reported,No,No,GLMM,GLMM,Yes,Yes,106,,1,,82,0.292682927
Oostenbroek2016,Oostenbroek,2016,Oostenbroek2016_2,3 weeks,CLICK sound,EEE sound,0,21,74,0.07,0.027414271,15,15,1,Home,Experimenter,2,15,4,15,60,300,0,Yes,"Just says ""in a quiet, alert state""",Experimenter judge,Not reported,No,No,GLMM,GLMM,Yes,Yes,106,,1,,82,0.292682927
Oostenbroek2016,Oostenbroek,2016,Oostenbroek2016_3,6 weeks,Tongue protrusion,Mouth opening,0,42,83,0.14,0.024450729,15,15,1,Home,Experimenter,2,15,4,15,60,300,0,Yes,"Just says ""in a quiet, alert state""",Experimenter judge,Not reported,No,No,GLMM,GLMM,Yes,Yes,106,,1,,87,0.218390805
Oostenbroek2016,Oostenbroek,2016,Oostenbroek2016_3,6 weeks,Tongue protrusion,Tube protrusion,0,42,76,0.3,0.026970667,15,15,1,Home,Experimenter,2,15,4,15,60,300,0,Yes,"Just says ""in a quiet, alert state""",Experimenter judge,Not reported,No,No,GLMM,GLMM,Yes,Yes,106,,1,,87,0.218390805
Oostenbroek2016,Oostenbroek,2016,Oostenbroek2016_3,6 weeks,Tongue protrusion,Box opening,0,42,75,0.29,0.027314988,15,15,1,Home,Experimenter,2,15,4,15,60,300,0,Yes,"Just says ""in a quiet, alert state""",Experimenter judge,Not reported,No,No,GLMM,GLMM,Yes,Yes,106,,1,,87,0.218390805
Oostenbroek2016,Oostenbroek,2016,Oostenbroek2016_3,6 weeks,Tongue protrusion,Happy face,0,42,79,0.14,0.025704652,15,15,1,Home,Experimenter,2,15,4,15,60,300,0,Yes,"Just says ""in a quiet, alert state""",Experimenter judge,Not reported,No,No,GLMM,GLMM,Yes,Yes,106,,1,,87,0.218390805
Oostenbroek2016,Oostenbroek,2016,Oostenbroek2016_3,6 weeks,Tongue protrusion,Sad face,0,42,77,0.29,0.026596074,15,15,1,Home,Experimenter,2,15,4,15,60,300,0,Yes,"Just says ""in a quiet, alert state""",Experimenter judge,Not reported,No,No,GLMM,GLMM,Yes,Yes,106,,1,,87,0.218390805
Oostenbroek2016,Oostenbroek,2016,Oostenbroek2016_3,6 weeks,Tongue protrusion,Finger protrusion,0,42,82,0.18,0.024792593,15,15,1,Home,Experimenter,2,15,4,15,60,300,0,Yes,"Just says ""in a quiet, alert state""",Experimenter judge,Not reported,No,No,GLMM,GLMM,Yes,Yes,106,,1,,87,0.218390805
Oostenbroek2016,Oostenbroek,2016,Oostenbroek2016_3,6 weeks,Tongue protrusion,Grasping,0,42,82,0.35,0.025074112,15,15,1,Home,Experimenter,2,15,4,15,60,300,0,Yes,"Just says ""in a quiet, alert state""",Experimenter judge,Not reported,No,No,GLMM,GLMM,Yes,Yes,106,,1,,87,0.218390805
Oostenbroek2016,Oostenbroek,2016,Oostenbroek2016_3,6 weeks,Tongue protrusion,MMM sound,0,42,80,0.27,0.025550072,15,15,1,Home,Experimenter,2,15,4,15,60,300,0,Yes,"Just says ""in a quiet, alert state""",Experimenter judge,Not reported,No,No,GLMM,GLMM,Yes,Yes,106,,1,,87,0.218390805
Oostenbroek2016,Oostenbroek,2016,Oostenbroek2016_3,6 weeks,Tongue protrusion,EEE sound,0,42,78,0.35,0.026376919,15,15,1,Home,Experimenter,2,15,4,15,60,300,0,Yes,"Just says ""in a quiet, alert state""",Experimenter judge,Not reported,No,No,GLMM,GLMM,Yes,Yes,106,,1,,87,0.218390805
Oostenbroek2016,Oostenbroek,2016,Oostenbroek2016_3,6 weeks,Tongue protrusion,CLICK sound,0,42,78,0.38,0.026448946,15,15,1,Home,Experimenter,2,15,4,15,60,300,0,Yes,"Just says ""in a quiet, alert state""",Experimenter judge,Not reported,No,No,GLMM,GLMM,Yes,Yes,106,,1,,87,0.218390805
Oostenbroek2016,Oostenbroek,2016,Oostenbroek2016_3,6 weeks,Mouth opening,Tongue protrusion,0,42,83,-0.18,0.024490229,15,15,1,Home,Experimenter,2,15,4,15,60,300,0,Yes,"Just says ""in a quiet, alert state""",Experimenter judge,Not reported,No,No,GLMM,GLMM,Yes,Yes,106,,1,,87,0.218390805
Oostenbroek2016,Oostenbroek,2016,Oostenbroek2016_3,6 weeks,Mouth opening,Tube protrusion,0,42,75,-0.06,0.027039354,15,15,1,Home,Experimenter,2,15,4,15,60,300,0,Yes,"Just says ""in a quiet, alert state""",Experimenter judge,Not reported,No,No,GLMM,GLMM,Yes,Yes,106,,1,,87,0.218390805
Oostenbroek2016,Oostenbroek,2016,Oostenbroek2016_3,6 weeks,Mouth opening,Box opening,0,42,74,0.06,0.027409758,15,15,1,Home,Experimenter,2,15,4,15,60,300,0,Yes,"Just says ""in a quiet, alert state""",Experimenter judge,Not reported,No,No,GLMM,GLMM,Yes,Yes,106,,1,,87,0.218390805
Oostenbroek2016,Oostenbroek,2016,Oostenbroek2016_3,6 weeks,Mouth opening,Happy face,0,42,80,-0.2,0.02544464,15,15,1,Home,Experimenter,2,15,4,15,60,300,0,Yes,"Just says ""in a quiet, alert state""",Experimenter judge,Not reported,No,No,GLMM,GLMM,Yes,Yes,106,,1,,87,0.218390805
Oostenbroek2016,Oostenbroek,2016,Oostenbroek2016_3,6 weeks,Mouth opening,Sad face,0,42,78,-0.12,0.026021386,15,15,1,Home,Experimenter,2,15,4,15,60,300,0,Yes,"Just says ""in a quiet, alert state""",Experimenter judge,Not reported,No,No,GLMM,GLMM,Yes,Yes,106,,1,,87,0.218390805
Oostenbroek2016,Oostenbroek,2016,Oostenbroek2016_3,6 weeks,Mouth opening,Finger protrusion,0,42,81,-0.06,0.025011391,15,15,1,Home,Experimenter,2,15,4,15,60,300,0,Yes,"Just says ""in a quiet, alert state""",Experimenter judge,Not reported,No,No,GLMM,GLMM,Yes,Yes,106,,1,,87,0.218390805
Oostenbroek2016,Oostenbroek,2016,Oostenbroek2016_3,6 weeks,Mouth opening,Grasping,0,42,81,0.05,0.02500791,15,15,1,Home,Experimenter,2,15,4,15,60,300,0,Yes,"Just says ""in a quiet, alert state""",Experimenter judge,Not reported,No,No,GLMM,GLMM,Yes,Yes,106,,1,,87,0.218390805
Oostenbroek2016,Oostenbroek,2016,Oostenbroek2016_3,6 weeks,Mouth opening,MMM sound,0,42,79,0.03,0.025643947,15,15,1,Home,Experimenter,2,15,4,15,60,300,0,Yes,"Just says ""in a quiet, alert state""",Experimenter judge,Not reported,No,No,GLMM,GLMM,Yes,Yes,106,,1,,87,0.218390805
Oostenbroek2016,Oostenbroek,2016,Oostenbroek2016_3,6 weeks,Mouth opening,EEE sound,0,42,77,0.07,0.02633212,15,15,1,Home,Experimenter,2,15,4,15,60,300,0,Yes,"Just says ""in a quiet, alert state""",Experimenter judge,Not reported,No,No,GLMM,GLMM,Yes,Yes,106,,1,,87,0.218390805
Oostenbroek2016,Oostenbroek,2016,Oostenbroek2016_3,6 weeks,Mouth opening,CLICK sound,0,42,77,-0.02,0.026317123,15,15,1,Home,Experimenter,2,15,4,15,60,300,0,Yes,"Just says ""in a quiet, alert state""",Experimenter judge,Not reported,No,No,GLMM,GLMM,Yes,Yes,106,,1,,87,0.218390805
Oostenbroek2016,Oostenbroek,2016,Oostenbroek2016_3,6 weeks,Happy face,Tongue protrusion,0,42,79,-0.21,0.025784184,15,15,1,Home,Experimenter,2,15,4,15,60,300,0,Yes,"Just says ""in a quiet, alert state""",Experimenter judge,Not reported,No,No,GLMM,GLMM,Yes,Yes,106,,1,,87,0.218390805
Oostenbroek2016,Oostenbroek,2016,Oostenbroek2016_3,6 weeks,Happy face,Mouth opening,0,42,80,-0.05,0.025324467,15,15,1,Home,Experimenter,2,15,4,15,60,300,0,Yes,"Just says ""in a quiet, alert state""",Experimenter judge,Not reported,No,No,GLMM,GLMM,Yes,Yes,106,,1,,87,0.218390805
Oostenbroek2016,Oostenbroek,2016,Oostenbroek2016_3,6 weeks,Happy face,Tube protrusion,0,42,72,0.34,0.028581789,15,15,1,Home,Experimenter,2,15,4,15,60,300,0,Yes,"Just says ""in a quiet, alert state""",Experimenter judge,Not reported,No,No,GLMM,GLMM,Yes,Yes,106,,1,,87,0.218390805
Oostenbroek2016,Oostenbroek,2016,Oostenbroek2016_3,6 weeks,Happy face,Box opening,0,42,71,0.48,0.029406041,15,15,1,Home,Experimenter,2,15,4,15,60,300,0,Yes,"Just says ""in a quiet, alert state""",Experimenter judge,Not reported,No,No,GLMM,GLMM,Yes,Yes,106,,1,,87,0.218390805
Oostenbroek2016,Oostenbroek,2016,Oostenbroek2016_3,6 weeks,Happy face,Sad face,0,42,78,0,0.025974026,15,15,1,Home,Experimenter,2,15,4,15,60,300,0,Yes,"Just says ""in a quiet, alert state""",Experimenter judge,Not reported,No,No,GLMM,GLMM,Yes,Yes,106,,1,,87,0.218390805
Oostenbroek2016,Oostenbroek,2016,Oostenbroek2016_3,6 weeks,Happy face,Finger protrusion,0,42,77,0.22,0.026477095,15,15,1,Home,Experimenter,2,15,4,15,60,300,0,Yes,"Just says ""in a quiet, alert state""",Experimenter judge,Not reported,No,No,GLMM,GLMM,Yes,Yes,106,,1,,87,0.218390805
Oostenbroek2016,Oostenbroek,2016,Oostenbroek2016_3,6 weeks,Happy face,Grasping,0,42,77,0.22,0.026477095,15,15,1,Home,Experimenter,2,15,4,15,60,300,0,Yes,"Just says ""in a quiet, alert state""",Experimenter judge,Not reported,No,No,GLMM,GLMM,Yes,Yes,106,,1,,87,0.218390805
Oostenbroek2016,Oostenbroek,2016,Oostenbroek2016_3,6 weeks,Happy face,MMM sound,0,42,75,-0.5,0.027883035,15,15,1,Home,Experimenter,2,15,4,15,60,300,0,Yes,"Just says ""in a quiet, alert state""",Experimenter judge,Not reported,No,No,GLMM,GLMM,Yes,Yes,106,,1,,87,0.218390805
Oostenbroek2016,Oostenbroek,2016,Oostenbroek2016_3,6 weeks,Happy face,EEE sound,0,42,73,-0.29,0.028073847,15,15,1,Home,Experimenter,2,15,4,15,60,300,0,Yes,"Just says ""in a quiet, alert state""",Experimenter judge,Not reported,No,No,GLMM,GLMM,Yes,Yes,106,,1,,87,0.218390805
Oostenbroek2016,Oostenbroek,2016,Oostenbroek2016_3,6 weeks,Happy face,CLICK sound,0,42,73,0,0.027777778,15,15,1,Home,Experimenter,2,15,4,15,60,300,0,Yes,"Just says ""in a quiet, alert state""",Experimenter judge,Not reported,No,No,GLMM,GLMM,Yes,Yes,106,,1,,87,0.218390805
Oostenbroek2016,Oostenbroek,2016,Oostenbroek2016_3,6 weeks,Sad face,Mouth opening,0,42,78,0.11,0.026013822,15,15,1,Home,Experimenter,2,15,4,15,60,300,0,Yes,"Just says ""in a quiet, alert state""",Experimenter judge,Not reported,No,No,GLMM,GLMM,Yes,Yes,106,,1,,87,0.218390805
Oostenbroek2016,Oostenbroek,2016,Oostenbroek2016_3,6 weeks,Sad face,Tube protrusion,0,42,71,0.12,0.028623592,15,15,1,Home,Experimenter,2,15,4,15,60,300,0,Yes,"Just says ""in a quiet, alert state""",Experimenter judge,Not reported,No,No,GLMM,GLMM,Yes,Yes,106,,1,,87,0.218390805
Oostenbroek2016,Oostenbroek,2016,Oostenbroek2016_3,6 weeks,Sad face,Box opening,0,42,70,0.12,0.029038437,15,15,1,Home,Experimenter,2,15,4,15,60,300,0,Yes,"Just says ""in a quiet, alert state""",Experimenter judge,Not reported,No,No,GLMM,GLMM,Yes,Yes,106,,1,,87,0.218390805
Oostenbroek2016,Oostenbroek,2016,Oostenbroek2016_3,6 weeks,Sad face,Happy face,0,42,78,0.11,0.026013822,15,15,1,Home,Experimenter,2,15,4,15,60,300,0,Yes,"Just says ""in a quiet, alert state""",Experimenter judge,Not reported,No,No,GLMM,GLMM,Yes,Yes,106,,1,,87,0.218390805
Oostenbroek2016,Oostenbroek,2016,Oostenbroek2016_3,6 weeks,Sad face,Finger protrusion,0,42,76,0.11,0.026707538,15,15,1,Home,Experimenter,2,15,4,15,60,300,0,Yes,"Just says ""in a quiet, alert state""",Experimenter judge,Not reported,No,No,GLMM,GLMM,Yes,Yes,106,,1,,87,0.218390805
Oostenbroek2016,Oostenbroek,2016,Oostenbroek2016_3,6 weeks,Sad face,Grasping,0,42,76,0.11,0.026707538,15,15,1,Home,Experimenter,2,15,4,15,60,300,0,Yes,"Just says ""in a quiet, alert state""",Experimenter judge,Not reported,No,No,GLMM,GLMM,Yes,Yes,106,,1,,87,0.218390805
Oostenbroek2016,Oostenbroek,2016,Oostenbroek2016_3,6 weeks,Sad face,MMM sound,0,42,74,0.05,0.027405939,15,15,1,Home,Experimenter,2,15,4,15,60,300,0,Yes,"Just says ""in a quiet, alert state""",Experimenter judge,Not reported,No,No,GLMM,GLMM,Yes,Yes,106,,1,,87,0.218390805
Oostenbroek2016,Oostenbroek,2016,Oostenbroek2016_3,6 weeks,Sad face,EEE sound,0,42,72,0.12,0.028220432,15,15,1,Home,Experimenter,2,15,4,15,60,300,0,Yes,"Just says ""in a quiet, alert state""",Experimenter judge,Not reported,No,No,GLMM,GLMM,Yes,Yes,106,,1,,87,0.218390805
Oostenbroek2016,Oostenbroek,2016,Oostenbroek2016_3,6 weeks,Sad face,CLICK sound,0,42,72,0.05,0.028177941,15,15,1,Home,Experimenter,2,15,4,15,60,300,0,Yes,"Just says ""in a quiet, alert state""",Experimenter judge,Not reported,No,No,GLMM,GLMM,Yes,Yes,106,,1,,87,0.218390805
Oostenbroek2016,Oostenbroek,2016,Oostenbroek2016_3,6 weeks,Finger protrusion,Tongue protrusion,0,42,82,-0.02,0.024692608,15,15,1,Home,Experimenter,2,15,4,15,60,300,0,Yes,"Just says ""in a quiet, alert state""",Experimenter judge,Not reported,No,No,GLMM,GLMM,Yes,Yes,106,,1,,87,0.218390805
Oostenbroek2016,Oostenbroek,2016,Oostenbroek2016_3,6 weeks,Finger protrusion,Mouth opening,0,42,81,0.05,0.02500791,15,15,1,Home,Experimenter,2,15,4,15,60,300,0,Yes,"Just says ""in a quiet, alert state""",Experimenter judge,Not reported,No,No,GLMM,GLMM,Yes,Yes,106,,1,,87,0.218390805
Oostenbroek2016,Oostenbroek,2016,Oostenbroek2016_3,6 weeks,Finger protrusion,Tube protrusion,0,42,78,0.2,0.026105583,15,15,1,Home,Experimenter,2,15,4,15,60,300,0,Yes,"Just says ""in a quiet, alert state""",Experimenter judge,Not reported,No,No,GLMM,GLMM,Yes,Yes,106,,1,,87,0.218390805
Oostenbroek2016,Oostenbroek,2016,Oostenbroek2016_3,6 weeks,Finger protrusion,Box opening,0,42,77,0.1,0.026349117,15,15,1,Home,Experimenter,2,15,4,15,60,300,0,Yes,"Just says ""in a quiet, alert state""",Experimenter judge,Not reported,No,No,GLMM,GLMM,Yes,Yes,106,,1,,87,0.218390805
Oostenbroek2016,Oostenbroek,2016,Oostenbroek2016_3,6 weeks,Finger protrusion,Happy face,0,42,77,-0.08,0.026337119,15,15,1,Home,Experimenter,2,15,4,15,60,300,0,Yes,"Just says ""in a quiet, alert state""",Experimenter judge,Not reported,No,No,GLMM,GLMM,Yes,Yes,106,,1,,87,0.218390805
Oostenbroek2016,Oostenbroek,2016,Oostenbroek2016_3,6 weeks,Finger protrusion,Sad face,0,42,76,0.04,0.026672071,15,15,1,Home,Experimenter,2,15,4,15,60,300,0,Yes,"Just says ""in a quiet, alert state""",Experimenter judge,Not reported,No,No,GLMM,GLMM,Yes,Yes,106,,1,,87,0.218390805
Oostenbroek2016,Oostenbroek,2016,Oostenbroek2016_3,6 weeks,Finger protrusion,Grasping,0,42,82,0.03,0.02469417,15,15,1,Home,Experimenter,2,15,4,15,60,300,0,Yes,"Just says ""in a quiet, alert state""",Experimenter judge,Not reported,No,No,GLMM,GLMM,Yes,Yes,106,,1,,87,0.218390805
Oostenbroek2016,Oostenbroek,2016,Oostenbroek2016_3,6 weeks,Finger protrusion,MMM sound,0,42,79,0.1,0.025673488,15,15,1,Home,Experimenter,2,15,4,15,60,300,0,Yes,"Just says ""in a quiet, alert state""",Experimenter judge,Not reported,No,No,GLMM,GLMM,Yes,Yes,106,,1,,87,0.218390805
Oostenbroek2016,Oostenbroek,2016,Oostenbroek2016_3,6 weeks,Finger protrusion,EEE sound,0,42,77,0.19,0.026436102,15,15,1,Home,Experimenter,2,15,4,15,60,300,0,Yes,"Just says ""in a quiet, alert state""",Experimenter judge,Not reported,No,No,GLMM,GLMM,Yes,Yes,106,,1,,87,0.218390805
Oostenbroek2016,Oostenbroek,2016,Oostenbroek2016_3,6 weeks,Finger protrusion,CLICK sound,0,42,77,0.2,0.0264491,15,15,1,Home,Experimenter,2,15,4,15,60,300,0,Yes,"Just says ""in a quiet, alert state""",Experimenter judge,Not reported,No,No,GLMM,GLMM,Yes,Yes,106,,1,,87,0.218390805
Oostenbroek2016,Oostenbroek,2016,Oostenbroek2016_3,6 weeks,Grasping,Tongue protrusion,0,42,82,-0.01,0.02469167,15,15,1,Home,Experimenter,2,15,4,15,60,300,0,Yes,"Just says ""in a quiet, alert state""",Experimenter judge,Not reported,No,No,GLMM,GLMM,Yes,Yes,106,,1,,87,0.218390805
Oostenbroek2016,Oostenbroek,2016,Oostenbroek2016_3,6 weeks,Grasping,Mouth opening,0,42,81,0.04,0.025005063,15,15,1,Home,Experimenter,2,15,4,15,60,300,0,Yes,"Just says ""in a quiet, alert state""",Experimenter judge,Not reported,No,No,GLMM,GLMM,Yes,Yes,106,,1,,87,0.218390805
Oostenbroek2016,Oostenbroek,2016,Oostenbroek2016_3,6 weeks,Grasping,Tube protrusion,0,42,76,0.25,0.026877778,15,15,1,Home,Experimenter,2,15,4,15,60,300,0,Yes,"Just says ""in a quiet, alert state""",Experimenter judge,Not reported,No,No,GLMM,GLMM,Yes,Yes,106,,1,,87,0.218390805
Oostenbroek2016,Oostenbroek,2016,Oostenbroek2016_3,6 weeks,Grasping,Box opening,0,42,75,0.1,0.027061267,15,15,1,Home,Experimenter,2,15,4,15,60,300,0,Yes,"Just says ""in a quiet, alert state""",Experimenter judge,Not reported,No,No,GLMM,GLMM,Yes,Yes,106,,1,,87,0.218390805
Oostenbroek2016,Oostenbroek,2016,Oostenbroek2016_3,6 weeks,Grasping,Happy face,0,42,77,0.08,0.026337119,15,15,1,Home,Experimenter,2,15,4,15,60,300,0,Yes,"Just says ""in a quiet, alert state""",Experimenter judge,Not reported,No,No,GLMM,GLMM,Yes,Yes,106,,1,,87,0.218390805
Oostenbroek2016,Oostenbroek,2016,Oostenbroek2016_3,6 weeks,Grasping,Sad face,0,42,76,0.19,0.026788604,15,15,1,Home,Experimenter,2,15,4,15,60,300,0,Yes,"Just says ""in a quiet, alert state""",Experimenter judge,Not reported,No,No,GLMM,GLMM,Yes,Yes,106,,1,,87,0.218390805
Oostenbroek2016,Oostenbroek,2016,Oostenbroek2016_3,6 weeks,Grasping,Finger protrusion,0,42,82,0.05,0.024699169,15,15,1,Home,Experimenter,2,15,4,15,60,300,0,Yes,"Just says ""in a quiet, alert state""",Experimenter judge,Not reported,No,No,GLMM,GLMM,Yes,Yes,106,,1,,87,0.218390805
Oostenbroek2016,Oostenbroek,2016,Oostenbroek2016_3,6 weeks,Grasping,MMM sound,0,42,81,0.07,0.025015504,15,15,1,Home,Experimenter,2,15,4,15,60,300,0,Yes,"Just says ""in a quiet, alert state""",Experimenter judge,Not reported,No,No,GLMM,GLMM,Yes,Yes,106,,1,,87,0.218390805
Oostenbroek2016,Oostenbroek,2016,Oostenbroek2016_3,6 weeks,Grasping,EEE sound,0,42,78,0.17,0.026069076,15,15,1,Home,Experimenter,2,15,4,15,60,300,0,Yes,"Just says ""in a quiet, alert state""",Experimenter judge,Not reported,No,No,GLMM,GLMM,Yes,Yes,106,,1,,87,0.218390805
Oostenbroek2016,Oostenbroek,2016,Oostenbroek2016_3,6 weeks,Grasping,CLICK sound,0,42,79,0.26,0.02586047,15,15,1,Home,Experimenter,2,15,4,15,60,300,0,Yes,"Just says ""in a quiet, alert state""",Experimenter judge,Not reported,No,No,GLMM,GLMM,Yes,Yes,106,,1,,87,0.218390805
Oostenbroek2016,Oostenbroek,2016,Oostenbroek2016_3,6 weeks,MMM sound,Tongue protrusion,0,42,80,0.09,0.025342413,15,15,1,Home,Experimenter,2,15,4,15,60,300,0,Yes,"Just says ""in a quiet, alert state""",Experimenter judge,Not reported,No,No,GLMM,GLMM,Yes,Yes,106,,1,,87,0.218390805
Oostenbroek2016,Oostenbroek,2016,Oostenbroek2016_3,6 weeks,MMM sound,Mouth opening,0,42,79,-0.01,0.02564135,15,15,1,Home,Experimenter,2,15,4,15,60,300,0,Yes,"Just says ""in a quiet, alert state""",Experimenter judge,Not reported,No,No,GLMM,GLMM,Yes,Yes,106,,1,,87,0.218390805
Oostenbroek2016,Oostenbroek,2016,Oostenbroek2016_3,6 weeks,MMM sound,Tube protrusion,0,42,74,0.12,0.027447251,15,15,1,Home,Experimenter,2,15,4,15,60,300,0,Yes,"Just says ""in a quiet, alert state""",Experimenter judge,Not reported,No,No,GLMM,GLMM,Yes,Yes,106,,1,,87,0.218390805
Oostenbroek2016,Oostenbroek,2016,Oostenbroek2016_3,6 weeks,MMM sound,Box opening,0,42,73,0.22,0.027948167,15,15,1,Home,Experimenter,2,15,4,15,60,300,0,Yes,"Just says ""in a quiet, alert state""",Experimenter judge,Not reported,No,No,GLMM,GLMM,Yes,Yes,106,,1,,87,0.218390805
Oostenbroek2016,Oostenbroek,2016,Oostenbroek2016_3,6 weeks,MMM sound,Happy face,0,42,75,0.1,0.027061267,15,15,1,Home,Experimenter,2,15,4,15,60,300,0,Yes,"Just says ""in a quiet, alert state""",Experimenter judge,Not reported,No,No,GLMM,GLMM,Yes,Yes,106,,1,,87,0.218390805
Oostenbroek2016,Oostenbroek,2016,Oostenbroek2016_3,6 weeks,MMM sound,Sad face,0,42,74,-0.05,0.027405939,15,15,1,Home,Experimenter,2,15,4,15,60,300,0,Yes,"Just says ""in a quiet, alert state""",Experimenter judge,Not reported,No,No,GLMM,GLMM,Yes,Yes,106,,1,,87,0.218390805
Oostenbroek2016,Oostenbroek,2016,Oostenbroek2016_3,6 weeks,MMM sound,Finger protrusion,0,42,79,0.25,0.025843914,15,15,1,Home,Experimenter,2,15,4,15,60,300,0,Yes,"Just says ""in a quiet, alert state""",Experimenter judge,Not reported,No,No,GLMM,GLMM,Yes,Yes,106,,1,,87,0.218390805
Oostenbroek2016,Oostenbroek,2016,Oostenbroek2016_3,6 weeks,MMM sound,Grasping,0,42,81,0.2,0.025126563,15,15,1,Home,Experimenter,2,15,4,15,60,300,0,Yes,"Just says ""in a quiet, alert state""",Experimenter judge,Not reported,No,No,GLMM,GLMM,Yes,Yes,106,,1,,87,0.218390805
Oostenbroek2016,Oostenbroek,2016,Oostenbroek2016_3,6 weeks,MMM sound,EEE sound,0,42,80,-0.04,0.025321583,15,15,1,Home,Experimenter,2,15,4,15,60,300,0,Yes,"Just says ""in a quiet, alert state""",Experimenter judge,Not reported,No,No,GLMM,GLMM,Yes,Yes,106,,1,,87,0.218390805
Oostenbroek2016,Oostenbroek,2016,Oostenbroek2016_3,6 weeks,MMM sound,CLICK sound,0,42,80,0.09,0.025342413,15,15,1,Home,Experimenter,2,15,4,15,60,300,0,Yes,"Just says ""in a quiet, alert state""",Experimenter judge,Not reported,No,No,GLMM,GLMM,Yes,Yes,106,,1,,87,0.218390805
Oostenbroek2016,Oostenbroek,2016,Oostenbroek2016_3,6 weeks,EEE sound,Tongue protrusion,0,42,78,0.19,0.026092756,15,15,1,Home,Experimenter,2,15,4,15,60,300,0,Yes,"Just says ""in a quiet, alert state""",Experimenter judge,Not reported,No,No,GLMM,GLMM,Yes,Yes,106,,1,,87,0.218390805
Oostenbroek2016,Oostenbroek,2016,Oostenbroek2016_3,6 weeks,EEE sound,Mouth opening,0,42,77,0.13,0.026372113,15,15,1,Home,Experimenter,2,15,4,15,60,300,0,Yes,"Just says ""in a quiet, alert state""",Experimenter judge,Not reported,No,No,GLMM,GLMM,Yes,Yes,106,,1,,87,0.218390805
Oostenbroek2016,Oostenbroek,2016,Oostenbroek2016_3,6 weeks,EEE sound,Tube protrusion,0,42,73,0.12,0.027828472,15,15,1,Home,Experimenter,2,15,4,15,60,300,0,Yes,"Just says ""in a quiet, alert state""",Experimenter judge,Not reported,No,No,GLMM,GLMM,Yes,Yes,106,,1,,87,0.218390805
Oostenbroek2016,Oostenbroek,2016,Oostenbroek2016_3,6 weeks,EEE sound,Box opening,0,42,72,0.12,0.028220432,15,15,1,Home,Experimenter,2,15,4,15,60,300,0,Yes,"Just says ""in a quiet, alert state""",Experimenter judge,Not reported,No,No,GLMM,GLMM,Yes,Yes,106,,1,,87,0.218390805
Oostenbroek2016,Oostenbroek,2016,Oostenbroek2016_3,6 weeks,EEE sound,Happy face,0,42,73,0.19,0.027904866,15,15,1,Home,Experimenter,2,15,4,15,60,300,0,Yes,"Just says ""in a quiet, alert state""",Experimenter judge,Not reported,No,No,GLMM,GLMM,Yes,Yes,106,,1,,87,0.218390805
Oostenbroek2016,Oostenbroek,2016,Oostenbroek2016_3,6 weeks,EEE sound,Sad face,0,42,72,0.19,0.028297917,15,15,1,Home,Experimenter,2,15,4,15,60,300,0,Yes,"Just says ""in a quiet, alert state""",Experimenter judge,Not reported,No,No,GLMM,GLMM,Yes,Yes,106,,1,,87,0.218390805
Oostenbroek2016,Oostenbroek,2016,Oostenbroek2016_3,6 weeks,EEE sound,Finger protrusion,0,42,77,0.16,0.026401108,15,15,1,Home,Experimenter,2,15,4,15,60,300,0,Yes,"Just says ""in a quiet, alert state""",Experimenter judge,Not reported,No,No,GLMM,GLMM,Yes,Yes,106,,1,,87,0.218390805
Oostenbroek2016,Oostenbroek,2016,Oostenbroek2016_3,6 weeks,EEE sound,Grasping,0,42,79,0.19,0.025758214,15,15,1,Home,Experimenter,2,15,4,15,60,300,0,Yes,"Just says ""in a quiet, alert state""",Experimenter judge,Not reported,No,No,GLMM,GLMM,Yes,Yes,106,,1,,87,0.218390805
Oostenbroek2016,Oostenbroek,2016,Oostenbroek2016_3,6 weeks,EEE sound,MMM sound,0,42,80,0.18,0.025420285,15,15,1,Home,Experimenter,2,15,4,15,60,300,0,Yes,"Just says ""in a quiet, alert state""",Experimenter judge,Not reported,No,No,GLMM,GLMM,Yes,Yes,106,,1,,87,0.218390805
Oostenbroek2016,Oostenbroek,2016,Oostenbroek2016_3,6 weeks,EEE sound,CLICK sound,0,42,80,0.18,0.025420285,15,15,1,Home,Experimenter,2,15,4,15,60,300,0,Yes,"Just says ""in a quiet, alert state""",Experimenter judge,Not reported,No,No,GLMM,GLMM,Yes,Yes,106,,1,,87,0.218390805
Oostenbroek2016,Oostenbroek,2016,Oostenbroek2016_3,6 weeks,CLICK sound,Tongue protrusion,0,42,78,0.26,0.026196357,15,15,1,Home,Experimenter,2,15,4,15,60,300,0,Yes,"Just says ""in a quiet, alert state""",Experimenter judge,Not reported,No,No,GLMM,GLMM,Yes,Yes,106,,1,,87,0.218390805
Oostenbroek2016,Oostenbroek,2016,Oostenbroek2016_3,6 weeks,CLICK sound,Mouth opening,0,42,77,0.19,0.026436102,15,15,1,Home,Experimenter,2,15,4,15,60,300,0,Yes,"Just says ""in a quiet, alert state""",Experimenter judge,Not reported,No,No,GLMM,GLMM,Yes,Yes,106,,1,,87,0.218390805
Oostenbroek2016,Oostenbroek,2016,Oostenbroek2016_3,6 weeks,CLICK sound,Tube protrusion,0,42,73,0.33,0.028161155,15,15,1,Home,Experimenter,2,15,4,15,60,300,0,Yes,"Just says ""in a quiet, alert state""",Experimenter judge,Not reported,No,No,GLMM,GLMM,Yes,Yes,106,,1,,87,0.218390805
Oostenbroek2016,Oostenbroek,2016,Oostenbroek2016_3,6 weeks,CLICK sound,Box opening,0,42,72,0.42,0.028798889,15,15,1,Home,Experimenter,2,15,4,15,60,300,0,Yes,"Just says ""in a quiet, alert state""",Experimenter judge,Not reported,No,No,GLMM,GLMM,Yes,Yes,106,,1,,87,0.218390805
Oostenbroek2016,Oostenbroek,2016,Oostenbroek2016_3,6 weeks,CLICK sound,Happy face,0,42,73,0.33,0.028161155,15,15,1,Home,Experimenter,2,15,4,15,60,300,0,Yes,"Just says ""in a quiet, alert state""",Experimenter judge,Not reported,No,No,GLMM,GLMM,Yes,Yes,106,,1,,87,0.218390805
Oostenbroek2016,Oostenbroek,2016,Oostenbroek2016_3,6 weeks,CLICK sound,Sad face,0,42,72,0.25,0.028392184,15,15,1,Home,Experimenter,2,15,4,15,60,300,0,Yes,"Just says ""in a quiet, alert state""",Experimenter judge,Not reported,No,No,GLMM,GLMM,Yes,Yes,106,,1,,87,0.218390805
Oostenbroek2016,Oostenbroek,2016,Oostenbroek2016_3,6 weeks,CLICK sound,Finger protrusion,0,42,77,0.27,0.026558747,15,15,1,Home,Experimenter,2,15,4,15,60,300,0,Yes,"Just says ""in a quiet, alert state""",Experimenter judge,Not reported,No,No,GLMM,GLMM,Yes,Yes,106,,1,,87,0.218390805
Oostenbroek2016,Oostenbroek,2016,Oostenbroek2016_3,6 weeks,CLICK sound,Grasping,0,42,79,0.31,0.025952987,15,15,1,Home,Experimenter,2,15,4,15,60,300,0,Yes,"Just says ""in a quiet, alert state""",Experimenter judge,Not reported,No,No,GLMM,GLMM,Yes,Yes,106,,1,,87,0.218390805
Oostenbroek2016,Oostenbroek,2016,Oostenbroek2016_3,6 weeks,CLICK sound,MMM sound,0,42,80,0.3,0.025604871,15,15,1,Home,Experimenter,2,15,4,15,60,300,0,Yes,"Just says ""in a quiet, alert state""",Experimenter judge,Not reported,No,No,GLMM,GLMM,Yes,Yes,106,,1,,87,0.218390805
Oostenbroek2016,Oostenbroek,2016,Oostenbroek2016_3,6 weeks,CLICK sound,EEE sound,0,42,80,0.24,0.025501041,15,15,1,Home,Experimenter,2,15,4,15,60,300,0,Yes,"Just says ""in a quiet, alert state""",Experimenter judge,Not reported,No,No,GLMM,GLMM,Yes,Yes,106,,1,,87,0.218390805
Reissland1988,Reissland,1988,Reissland1988_1,,Widened lips,Pursed lips,0,0.041666667,12,1.408166657,0.230981818,73,,1,Hospital,Experimenter,Modelling while responding,Modelling while responding,Modelling while responding,Modelling while responding,73,76.8,0,Yes,"Eyes open, hands resting or waving without obstructing face (nonmodeling session); eyes open and looking at the experimenter and hands resting or waving without obstructing face (modeling session). Also eyeblinks",Behaviour,"Mean number of blinks per minute was 10.7 when broad mouth, 9.3 when pursed mouth, 6.5 in nonmodeling condition",No,No,Wilcoxon matched-pairs signed-rank test,Signed rank,Yes,Yes,12,0,1,,12,0
Reissland1988,Reissland,1988,Reissland1988_1,,Pursed lips,Widened lips,0,0.041666667,12,2.102198826,0.291386113,72,,1,Hospital,Experimenter,Modelling while responding,Modelling while responding,Modelling while responding,Modelling while responding,73,76.8,0,Yes,"Eyes open, hands resting or waving without obstructing face (nonmodeling session); eyes open and looking at the experimenter and hands resting or waving without obstructing face (modeling session). Also eyeblinks",Behaviour,"Mean number of blinks per minute was 10.7 when broad mouth, 9.3 when pursed mouth, 6.5 in nonmodeling condition",No,No,Wilcoxon matched-pairs signed-rank test,Signed rank,Yes,Yes,12,0,1,,12,0
Soussignan2011,Soussignan,2011,Soussignan2011_1,,Tongue protrusion,Baseline,1,1.589166667,18,3.297342959,0.286941584,42,,0,Hospital,Video,4,6,4,6,42,42,0,Yes,Visual attention of at least 6 s toward the stimulus,Looking,Not reported,No,No,Repeated measures analysis of variance,ANOVA,Yes,No,45,27,1,"12 for fussiness, sleepiness or hiccuping and 15 for visual attention of less than 6 s toward the stimulus",18,1.5
